"success","timeout","failed_images","failed_audio","failed_video","trial_type","trial_index","plugin_version","time_elapsed","rt","view_history","stimulus","response","block","trial","phase","action","a1_key","a2_key","a3_key","a4_key","reward_probs","condition","subset","available_keys","image","attention_check","reward","a1_count","a2_count","a3_count","a4_count"
"true","false","[]","[]","[]","preload","0","2.1.0","808","","","","","","","","","","","","","","","","","","","","","","",""
"true","","","","","fullscreen","1","2.1.0","7746","6834","","","","","","","","","","","","","","","","","","","","","",""
"","","","","","instructions","2","2.1.0","732837","725093","[{""page_index"":0,""viewing_time"":7913},{""page_index"":1,""viewing_time"":10116},{""page_index"":2,""viewing_time"":8185},{""page_index"":3,""viewing_time"":11735},{""page_index"":4,""viewing_time"":669987},{""page_index"":5,""viewing_time"":11829},{""page_index"":6,""viewing_time"":5327}]","","","","","","","","","","","","","","","","","","","","",""
"","","","","","html-keyboard-response","3","2.1.0","739543","6703","","<div style=""text-align: center; font-size: 1.2em;""><h3>Block 1/6</h3>The following actions will be available:<br/><br/><div style=""display: flex; justify-content: center; gap: 40px;"">
      <div style=""
        text-align: center;
        font-size: 24px;
        opacity: 0.3;
        border: 2px solid #999;
        border-radius: 8px;
        padding: 20px 15px;
        width: 60px;
        box-shadow: none;
      "">
        F<br>
      </div>
      <div style=""
        text-align: center;
        font-size: 24px;
        opacity: 0.3;
        border: 2px solid #999;
        border-radius: 8px;
        padding: 20px 15px;
        width: 60px;
        box-shadow: none;
      "">
        G<br>
      </div>
      <div style=""
        text-align: center;
        font-size: 24px;
        opacity: 1;
        border: 2px solid #000;
        border-radius: 8px;
        padding: 20px 15px;
        width: 60px;
        box-shadow: 0 0 10px #333;
      "">
        H<br>
      </div>
      <div style=""
        text-align: center;
        font-size: 24px;
        opacity: 1;
        border: 2px solid #000;
        border-radius: 8px;
        padding: 20px 15px;
        width: 60px;
        box-shadow: 0 0 10px #333;
      "">
        J<br>
      </div></div></div></p></div><p class=""continue"" style=""text-align: center;""><br/>[Press SPACE to continue]</p>"," ","","","","","","","","","","","","","","","","","","",""
"","","","","","html-keyboard-response","4","2.1.0","740046","null","","
    <div style=""text-align: center;"">
      <img src=""static/images/fix_cross.jpg"" style=""width: 400px; height: 400px; margin-bottom: 30px;"">
      <div style=""display: flex; justify-content: center; gap: 40px;"">
      <div style=""
        text-align: center;
        font-size: 24px;
        opacity: 0.3;
        border: 2px solid #999;
        border-radius: 8px;
        padding: 20px 15px;
        width: 60px;
        box-shadow: none;
      "">
        F<br>
      </div>
      <div style=""
        text-align: center;
        font-size: 24px;
        opacity: 0.3;
        border: 2px solid #999;
        border-radius: 8px;
        padding: 20px 15px;
        width: 60px;
        box-shadow: none;
      "">
        G<br>
      </div>
      <div style=""
        text-align: center;
        font-size: 24px;
        opacity: 1;
        border: 2px solid #000;
        border-radius: 8px;
        padding: 20px 15px;
        width: 60px;
        box-shadow: 0 0 10px #333;
      "">
        H<br>
      </div>
      <div style=""
        text-align: center;
        font-size: 24px;
        opacity: 1;
        border: 2px solid #000;
        border-radius: 8px;
        padding: 20px 15px;
        width: 60px;
        box-shadow: 0 0 10px #333;
      "">
        J<br>
      </div></div></div>","null","","","","","","","","","","","","","","","","","","",""
"","","","","","html-keyboard-response","5","2.1.0","740944","897","","
    <div style=""text-align: center;"">
      <img src=""static/images/12.jpg"" style=""width: 400px; height: 400px; margin-bottom: 30px;"">
      <div style=""display: flex; justify-content: center; gap: 40px;"">
      <div style=""
        text-align: center;
        font-size: 24px;
        opacity: 0.3;
        border: 2px solid #999;
        border-radius: 8px;
        padding: 20px 15px;
        width: 60px;
        box-shadow: none;
      "">
        F<br>
      </div>
      <div style=""
        text-align: center;
        font-size: 24px;
        opacity: 0.3;
        border: 2px solid #999;
        border-radius: 8px;
        padding: 20px 15px;
        width: 60px;
        box-shadow: none;
      "">
        G<br>
      </div>
      <div style=""
        text-align: center;
        font-size: 24px;
        opacity: 1;
        border: 2px solid #000;
        border-radius: 8px;
        padding: 20px 15px;
        width: 60px;
        box-shadow: 0 0 10px #333;
      "">
        H<br>
      </div>
      <div style=""
        text-align: center;
        font-size: 24px;
        opacity: 1;
        border: 2px solid #000;
        border-radius: 8px;
        padding: 20px 15px;
        width: 60px;
        box-shadow: 0 0 10px #333;
      "">
        J<br>
      </div></div></div>","h","0","0","training","A4","g","f","j","h","{""A1"":0.93,""A2"":0.27,""A3"":0.73,""A4"":0.07}","1","[""A3"",""A4""]","[""j"",""h""]","12","false","0","0","0","0","1"
"","","","","","html-keyboard-response","6","2.1.0","741948","null","","
    <div style=""text-align: center;"">
      <img src=""static/images/feedback_0.jpg"" style=""width: 400px; height: 400px; margin-bottom: 30px;"">
      <div style=""display: flex; justify-content: center; gap: 40px;"">
      <div style=""
        text-align: center;
        font-size: 24px;
        opacity: 0.3;
        border: 2px solid #999;
        border-radius: 8px;
        padding: 20px 15px;
        width: 60px;
        box-shadow: none;
      "">
        F<br>
      </div>
      <div style=""
        text-align: center;
        font-size: 24px;
        opacity: 0.3;
        border: 2px solid #999;
        border-radius: 8px;
        padding: 20px 15px;
        width: 60px;
        box-shadow: none;
      "">
        G<br>
      </div>
      <div style=""
        text-align: center;
        font-size: 24px;
        opacity: 1;
        border: 2px solid #000;
        border-radius: 8px;
        padding: 20px 15px;
        width: 60px;
        box-shadow: 0 0 10px #333;
      "">
        H<br>
      </div>
      <div style=""
        text-align: center;
        font-size: 24px;
        opacity: 1;
        border: 2px solid #000;
        border-radius: 8px;
        padding: 20px 15px;
        width: 60px;
        box-shadow: 0 0 10px #333;
      "">
        J<br>
      </div></div></div>","null","","","","","","","","","","","","","","","","","","",""
"","","","","","html-keyboard-response","7","2.1.0","742451","null","","
    <div style=""text-align: center;"">
      <img src=""static/images/fix_cross.jpg"" style=""width: 400px; height: 400px; margin-bottom: 30px;"">
      <div style=""display: flex; justify-content: center; gap: 40px;"">
      <div style=""
        text-align: center;
        font-size: 24px;
        opacity: 0.3;
        border: 2px solid #999;
        border-radius: 8px;
        padding: 20px 15px;
        width: 60px;
        box-shadow: none;
      "">
        F<br>
      </div>
      <div style=""
        text-align: center;
        font-size: 24px;
        opacity: 0.3;
        border: 2px solid #999;
        border-radius: 8px;
        padding: 20px 15px;
        width: 60px;
        box-shadow: none;
      "">
        G<br>
      </div>
      <div style=""
        text-align: center;
        font-size: 24px;
        opacity: 1;
        border: 2px solid #000;
        border-radius: 8px;
        padding: 20px 15px;
        width: 60px;
        box-shadow: 0 0 10px #333;
      "">
        H<br>
      </div>
      <div style=""
        text-align: center;
        font-size: 24px;
        opacity: 1;
        border: 2px solid #000;
        border-radius: 8px;
        padding: 20px 15px;
        width: 60px;
        box-shadow: 0 0 10px #333;
      "">
        J<br>
      </div></div></div>","null","","","","","","","","","","","","","","","","","","",""
"","","","","","html-keyboard-response","8","2.1.0","743738","1285","","
    <div style=""text-align: center;"">
      <img src=""static/images/7.jpg"" style=""width: 400px; height: 400px; margin-bottom: 30px;"">
      <div style=""display: flex; justify-content: center; gap: 40px;"">
      <div style=""
        text-align: center;
        font-size: 24px;
        opacity: 0.3;
        border: 2px solid #999;
        border-radius: 8px;
        padding: 20px 15px;
        width: 60px;
        box-shadow: none;
      "">
        F<br>
      </div>
      <div style=""
        text-align: center;
        font-size: 24px;
        opacity: 0.3;
        border: 2px solid #999;
        border-radius: 8px;
        padding: 20px 15px;
        width: 60px;
        box-shadow: none;
      "">
        G<br>
      </div>
      <div style=""
        text-align: center;
        font-size: 24px;
        opacity: 1;
        border: 2px solid #000;
        border-radius: 8px;
        padding: 20px 15px;
        width: 60px;
        box-shadow: 0 0 10px #333;
      "">
        H<br>
      </div>
      <div style=""
        text-align: center;
        font-size: 24px;
        opacity: 1;
        border: 2px solid #000;
        border-radius: 8px;
        padding: 20px 15px;
        width: 60px;
        box-shadow: 0 0 10px #333;
      "">
        J<br>
      </div></div></div>","h","0","1","training","A3","f","g","h","j","{""A1"":0.93,""A2"":0.27,""A3"":0.73,""A4"":0.07}","1","[""A3"",""A4""]","[""j"",""h""]","7","false","1","0","0","1","0"
"","","","","","html-keyboard-response","9","2.1.0","744741","null","","
    <div style=""text-align: center;"">
      <img src=""static/images/feedback_1.jpg"" style=""width: 400px; height: 400px; margin-bottom: 30px;"">
      <div style=""display: flex; justify-content: center; gap: 40px;"">
      <div style=""
        text-align: center;
        font-size: 24px;
        opacity: 0.3;
        border: 2px solid #999;
        border-radius: 8px;
        padding: 20px 15px;
        width: 60px;
        box-shadow: none;
      "">
        F<br>
      </div>
      <div style=""
        text-align: center;
        font-size: 24px;
        opacity: 0.3;
        border: 2px solid #999;
        border-radius: 8px;
        padding: 20px 15px;
        width: 60px;
        box-shadow: none;
      "">
        G<br>
      </div>
      <div style=""
        text-align: center;
        font-size: 24px;
        opacity: 1;
        border: 2px solid #000;
        border-radius: 8px;
        padding: 20px 15px;
        width: 60px;
        box-shadow: 0 0 10px #333;
      "">
        H<br>
      </div>
      <div style=""
        text-align: center;
        font-size: 24px;
        opacity: 1;
        border: 2px solid #000;
        border-radius: 8px;
        padding: 20px 15px;
        width: 60px;
        box-shadow: 0 0 10px #333;
      "">
        J<br>
      </div></div></div>","null","","","","","","","","","","","","","","","","","","",""
"","","","","","html-keyboard-response","10","2.1.0","745243","null","","
    <div style=""text-align: center;"">
      <img src=""static/images/fix_cross.jpg"" style=""width: 400px; height: 400px; margin-bottom: 30px;"">
      <div style=""display: flex; justify-content: center; gap: 40px;"">
      <div style=""
        text-align: center;
        font-size: 24px;
        opacity: 0.3;
        border: 2px solid #999;
        border-radius: 8px;
        padding: 20px 15px;
        width: 60px;
        box-shadow: none;
      "">
        F<br>
      </div>
      <div style=""
        text-align: center;
        font-size: 24px;
        opacity: 0.3;
        border: 2px solid #999;
        border-radius: 8px;
        padding: 20px 15px;
        width: 60px;
        box-shadow: none;
      "">
        G<br>
      </div>
      <div style=""
        text-align: center;
        font-size: 24px;
        opacity: 1;
        border: 2px solid #000;
        border-radius: 8px;
        padding: 20px 15px;
        width: 60px;
        box-shadow: 0 0 10px #333;
      "">
        H<br>
      </div>
      <div style=""
        text-align: center;
        font-size: 24px;
        opacity: 1;
        border: 2px solid #000;
        border-radius: 8px;
        padding: 20px 15px;
        width: 60px;
        box-shadow: 0 0 10px #333;
      "">
        J<br>
      </div></div></div>","null","","","","","","","","","","","","","","","","","","",""
"","","","","","html-keyboard-response","11","2.1.0","746135","890","","
    <div style=""text-align: center;"">
      <img src=""static/images/7.jpg"" style=""width: 400px; height: 400px; margin-bottom: 30px;"">
      <div style=""display: flex; justify-content: center; gap: 40px;"">
      <div style=""
        text-align: center;
        font-size: 24px;
        opacity: 0.3;
        border: 2px solid #999;
        border-radius: 8px;
        padding: 20px 15px;
        width: 60px;
        box-shadow: none;
      "">
        F<br>
      </div>
      <div style=""
        text-align: center;
        font-size: 24px;
        opacity: 0.3;
        border: 2px solid #999;
        border-radius: 8px;
        padding: 20px 15px;
        width: 60px;
        box-shadow: none;
      "">
        G<br>
      </div>
      <div style=""
        text-align: center;
        font-size: 24px;
        opacity: 1;
        border: 2px solid #000;
        border-radius: 8px;
        padding: 20px 15px;
        width: 60px;
        box-shadow: 0 0 10px #333;
      "">
        H<br>
      </div>
      <div style=""
        text-align: center;
        font-size: 24px;
        opacity: 1;
        border: 2px solid #000;
        border-radius: 8px;
        padding: 20px 15px;
        width: 60px;
        box-shadow: 0 0 10px #333;
      "">
        J<br>
      </div></div></div>","h","0","2","training","A3","f","g","h","j","{""A1"":0.93,""A2"":0.27,""A3"":0.73,""A4"":0.07}","1","[""A3"",""A4""]","[""j"",""h""]","7","false","1","0","0","2","0"
"","","","","","html-keyboard-response","12","2.1.0","747137","null","","
    <div style=""text-align: center;"">
      <img src=""static/images/feedback_1.jpg"" style=""width: 400px; height: 400px; margin-bottom: 30px;"">
      <div style=""display: flex; justify-content: center; gap: 40px;"">
      <div style=""
        text-align: center;
        font-size: 24px;
        opacity: 0.3;
        border: 2px solid #999;
        border-radius: 8px;
        padding: 20px 15px;
        width: 60px;
        box-shadow: none;
      "">
        F<br>
      </div>
      <div style=""
        text-align: center;
        font-size: 24px;
        opacity: 0.3;
        border: 2px solid #999;
        border-radius: 8px;
        padding: 20px 15px;
        width: 60px;
        box-shadow: none;
      "">
        G<br>
      </div>
      <div style=""
        text-align: center;
        font-size: 24px;
        opacity: 1;
        border: 2px solid #000;
        border-radius: 8px;
        padding: 20px 15px;
        width: 60px;
        box-shadow: 0 0 10px #333;
      "">
        H<br>
      </div>
      <div style=""
        text-align: center;
        font-size: 24px;
        opacity: 1;
        border: 2px solid #000;
        border-radius: 8px;
        padding: 20px 15px;
        width: 60px;
        box-shadow: 0 0 10px #333;
      "">
        J<br>
      </div></div></div>","null","","","","","","","","","","","","","","","","","","",""
"","","","","","html-keyboard-response","13","2.1.0","747639","null","","
    <div style=""text-align: center;"">
      <img src=""static/images/fix_cross.jpg"" style=""width: 400px; height: 400px; margin-bottom: 30px;"">
      <div style=""display: flex; justify-content: center; gap: 40px;"">
      <div style=""
        text-align: center;
        font-size: 24px;
        opacity: 0.3;
        border: 2px solid #999;
        border-radius: 8px;
        padding: 20px 15px;
        width: 60px;
        box-shadow: none;
      "">
        F<br>
      </div>
      <div style=""
        text-align: center;
        font-size: 24px;
        opacity: 0.3;
        border: 2px solid #999;
        border-radius: 8px;
        padding: 20px 15px;
        width: 60px;
        box-shadow: none;
      "">
        G<br>
      </div>
      <div style=""
        text-align: center;
        font-size: 24px;
        opacity: 1;
        border: 2px solid #000;
        border-radius: 8px;
        padding: 20px 15px;
        width: 60px;
        box-shadow: 0 0 10px #333;
      "">
        H<br>
      </div>
      <div style=""
        text-align: center;
        font-size: 24px;
        opacity: 1;
        border: 2px solid #000;
        border-radius: 8px;
        padding: 20px 15px;
        width: 60px;
        box-shadow: 0 0 10px #333;
      "">
        J<br>
      </div></div></div>","null","","","","","","","","","","","","","","","","","","",""
"","","","","","html-keyboard-response","14","2.1.0","749435","1794","","
    <div style=""text-align: center;"">
      <img src=""static/images/12.jpg"" style=""width: 400px; height: 400px; margin-bottom: 30px;"">
      <div style=""display: flex; justify-content: center; gap: 40px;"">
      <div style=""
        text-align: center;
        font-size: 24px;
        opacity: 0.3;
        border: 2px solid #999;
        border-radius: 8px;
        padding: 20px 15px;
        width: 60px;
        box-shadow: none;
      "">
        F<br>
      </div>
      <div style=""
        text-align: center;
        font-size: 24px;
        opacity: 0.3;
        border: 2px solid #999;
        border-radius: 8px;
        padding: 20px 15px;
        width: 60px;
        box-shadow: none;
      "">
        G<br>
      </div>
      <div style=""
        text-align: center;
        font-size: 24px;
        opacity: 1;
        border: 2px solid #000;
        border-radius: 8px;
        padding: 20px 15px;
        width: 60px;
        box-shadow: 0 0 10px #333;
      "">
        H<br>
      </div>
      <div style=""
        text-align: center;
        font-size: 24px;
        opacity: 1;
        border: 2px solid #000;
        border-radius: 8px;
        padding: 20px 15px;
        width: 60px;
        box-shadow: 0 0 10px #333;
      "">
        J<br>
      </div></div></div>","j","0","3","training","A3","g","f","j","h","{""A1"":0.93,""A2"":0.27,""A3"":0.73,""A4"":0.07}","1","[""A3"",""A4""]","[""j"",""h""]","12","false","1","0","0","1","1"
"","","","","","html-keyboard-response","15","2.1.0","750438","null","","
    <div style=""text-align: center;"">
      <img src=""static/images/feedback_1.jpg"" style=""width: 400px; height: 400px; margin-bottom: 30px;"">
      <div style=""display: flex; justify-content: center; gap: 40px;"">
      <div style=""
        text-align: center;
        font-size: 24px;
        opacity: 0.3;
        border: 2px solid #999;
        border-radius: 8px;
        padding: 20px 15px;
        width: 60px;
        box-shadow: none;
      "">
        F<br>
      </div>
      <div style=""
        text-align: center;
        font-size: 24px;
        opacity: 0.3;
        border: 2px solid #999;
        border-radius: 8px;
        padding: 20px 15px;
        width: 60px;
        box-shadow: none;
      "">
        G<br>
      </div>
      <div style=""
        text-align: center;
        font-size: 24px;
        opacity: 1;
        border: 2px solid #000;
        border-radius: 8px;
        padding: 20px 15px;
        width: 60px;
        box-shadow: 0 0 10px #333;
      "">
        H<br>
      </div>
      <div style=""
        text-align: center;
        font-size: 24px;
        opacity: 1;
        border: 2px solid #000;
        border-radius: 8px;
        padding: 20px 15px;
        width: 60px;
        box-shadow: 0 0 10px #333;
      "">
        J<br>
      </div></div></div>","null","","","","","","","","","","","","","","","","","","",""
"","","","","","html-keyboard-response","16","2.1.0","750941","null","","
    <div style=""text-align: center;"">
      <img src=""static/images/fix_cross.jpg"" style=""width: 400px; height: 400px; margin-bottom: 30px;"">
      <div style=""display: flex; justify-content: center; gap: 40px;"">
      <div style=""
        text-align: center;
        font-size: 24px;
        opacity: 0.3;
        border: 2px solid #999;
        border-radius: 8px;
        padding: 20px 15px;
        width: 60px;
        box-shadow: none;
      "">
        F<br>
      </div>
      <div style=""
        text-align: center;
        font-size: 24px;
        opacity: 0.3;
        border: 2px solid #999;
        border-radius: 8px;
        padding: 20px 15px;
        width: 60px;
        box-shadow: none;
      "">
        G<br>
      </div>
      <div style=""
        text-align: center;
        font-size: 24px;
        opacity: 1;
        border: 2px solid #000;
        border-radius: 8px;
        padding: 20px 15px;
        width: 60px;
        box-shadow: 0 0 10px #333;
      "">
        H<br>
      </div>
      <div style=""
        text-align: center;
        font-size: 24px;
        opacity: 1;
        border: 2px solid #000;
        border-radius: 8px;
        padding: 20px 15px;
        width: 60px;
        box-shadow: 0 0 10px #333;
      "">
        J<br>
      </div></div></div>","null","","","","","","","","","","","","","","","","","","",""
"","","","","","html-keyboard-response","17","2.1.0","751855","912","","
    <div style=""text-align: center;"">
      <img src=""static/images/7.jpg"" style=""width: 400px; height: 400px; margin-bottom: 30px;"">
      <div style=""display: flex; justify-content: center; gap: 40px;"">
      <div style=""
        text-align: center;
        font-size: 24px;
        opacity: 0.3;
        border: 2px solid #999;
        border-radius: 8px;
        padding: 20px 15px;
        width: 60px;
        box-shadow: none;
      "">
        F<br>
      </div>
      <div style=""
        text-align: center;
        font-size: 24px;
        opacity: 0.3;
        border: 2px solid #999;
        border-radius: 8px;
        padding: 20px 15px;
        width: 60px;
        box-shadow: none;
      "">
        G<br>
      </div>
      <div style=""
        text-align: center;
        font-size: 24px;
        opacity: 1;
        border: 2px solid #000;
        border-radius: 8px;
        padding: 20px 15px;
        width: 60px;
        box-shadow: 0 0 10px #333;
      "">
        H<br>
      </div>
      <div style=""
        text-align: center;
        font-size: 24px;
        opacity: 1;
        border: 2px solid #000;
        border-radius: 8px;
        padding: 20px 15px;
        width: 60px;
        box-shadow: 0 0 10px #333;
      "">
        J<br>
      </div></div></div>","h","0","4","training","A3","f","g","h","j","{""A1"":0.93,""A2"":0.27,""A3"":0.73,""A4"":0.07}","1","[""A3"",""A4""]","[""j"",""h""]","7","false","1","0","0","3","0"
"","","","","","html-keyboard-response","18","2.1.0","752858","null","","
    <div style=""text-align: center;"">
      <img src=""static/images/feedback_1.jpg"" style=""width: 400px; height: 400px; margin-bottom: 30px;"">
      <div style=""display: flex; justify-content: center; gap: 40px;"">
      <div style=""
        text-align: center;
        font-size: 24px;
        opacity: 0.3;
        border: 2px solid #999;
        border-radius: 8px;
        padding: 20px 15px;
        width: 60px;
        box-shadow: none;
      "">
        F<br>
      </div>
      <div style=""
        text-align: center;
        font-size: 24px;
        opacity: 0.3;
        border: 2px solid #999;
        border-radius: 8px;
        padding: 20px 15px;
        width: 60px;
        box-shadow: none;
      "">
        G<br>
      </div>
      <div style=""
        text-align: center;
        font-size: 24px;
        opacity: 1;
        border: 2px solid #000;
        border-radius: 8px;
        padding: 20px 15px;
        width: 60px;
        box-shadow: 0 0 10px #333;
      "">
        H<br>
      </div>
      <div style=""
        text-align: center;
        font-size: 24px;
        opacity: 1;
        border: 2px solid #000;
        border-radius: 8px;
        padding: 20px 15px;
        width: 60px;
        box-shadow: 0 0 10px #333;
      "">
        J<br>
      </div></div></div>","null","","","","","","","","","","","","","","","","","","",""
"","","","","","html-keyboard-response","19","2.1.0","753360","null","","
    <div style=""text-align: center;"">
      <img src=""static/images/fix_cross.jpg"" style=""width: 400px; height: 400px; margin-bottom: 30px;"">
      <div style=""display: flex; justify-content: center; gap: 40px;"">
      <div style=""
        text-align: center;
        font-size: 24px;
        opacity: 0.3;
        border: 2px solid #999;
        border-radius: 8px;
        padding: 20px 15px;
        width: 60px;
        box-shadow: none;
      "">
        F<br>
      </div>
      <div style=""
        text-align: center;
        font-size: 24px;
        opacity: 0.3;
        border: 2px solid #999;
        border-radius: 8px;
        padding: 20px 15px;
        width: 60px;
        box-shadow: none;
      "">
        G<br>
      </div>
      <div style=""
        text-align: center;
        font-size: 24px;
        opacity: 1;
        border: 2px solid #000;
        border-radius: 8px;
        padding: 20px 15px;
        width: 60px;
        box-shadow: 0 0 10px #333;
      "">
        H<br>
      </div>
      <div style=""
        text-align: center;
        font-size: 24px;
        opacity: 1;
        border: 2px solid #000;
        border-radius: 8px;
        padding: 20px 15px;
        width: 60px;
        box-shadow: 0 0 10px #333;
      "">
        J<br>
      </div></div></div>","null","","","","","","","","","","","","","","","","","","",""
"","","","","","html-keyboard-response","20","2.1.0","754053","692","","
    <div style=""text-align: center;"">
      <img src=""static/images/12.jpg"" style=""width: 400px; height: 400px; margin-bottom: 30px;"">
      <div style=""display: flex; justify-content: center; gap: 40px;"">
      <div style=""
        text-align: center;
        font-size: 24px;
        opacity: 0.3;
        border: 2px solid #999;
        border-radius: 8px;
        padding: 20px 15px;
        width: 60px;
        box-shadow: none;
      "">
        F<br>
      </div>
      <div style=""
        text-align: center;
        font-size: 24px;
        opacity: 0.3;
        border: 2px solid #999;
        border-radius: 8px;
        padding: 20px 15px;
        width: 60px;
        box-shadow: none;
      "">
        G<br>
      </div>
      <div style=""
        text-align: center;
        font-size: 24px;
        opacity: 1;
        border: 2px solid #000;
        border-radius: 8px;
        padding: 20px 15px;
        width: 60px;
        box-shadow: 0 0 10px #333;
      "">
        H<br>
      </div>
      <div style=""
        text-align: center;
        font-size: 24px;
        opacity: 1;
        border: 2px solid #000;
        border-radius: 8px;
        padding: 20px 15px;
        width: 60px;
        box-shadow: 0 0 10px #333;
      "">
        J<br>
      </div></div></div>","j","0","5","training","A3","g","f","j","h","{""A1"":0.93,""A2"":0.27,""A3"":0.73,""A4"":0.07}","1","[""A3"",""A4""]","[""j"",""h""]","12","false","1","0","0","2","1"
"","","","","","html-keyboard-response","21","2.1.0","755056","null","","
    <div style=""text-align: center;"">
      <img src=""static/images/feedback_1.jpg"" style=""width: 400px; height: 400px; margin-bottom: 30px;"">
      <div style=""display: flex; justify-content: center; gap: 40px;"">
      <div style=""
        text-align: center;
        font-size: 24px;
        opacity: 0.3;
        border: 2px solid #999;
        border-radius: 8px;
        padding: 20px 15px;
        width: 60px;
        box-shadow: none;
      "">
        F<br>
      </div>
      <div style=""
        text-align: center;
        font-size: 24px;
        opacity: 0.3;
        border: 2px solid #999;
        border-radius: 8px;
        padding: 20px 15px;
        width: 60px;
        box-shadow: none;
      "">
        G<br>
      </div>
      <div style=""
        text-align: center;
        font-size: 24px;
        opacity: 1;
        border: 2px solid #000;
        border-radius: 8px;
        padding: 20px 15px;
        width: 60px;
        box-shadow: 0 0 10px #333;
      "">
        H<br>
      </div>
      <div style=""
        text-align: center;
        font-size: 24px;
        opacity: 1;
        border: 2px solid #000;
        border-radius: 8px;
        padding: 20px 15px;
        width: 60px;
        box-shadow: 0 0 10px #333;
      "">
        J<br>
      </div></div></div>","null","","","","","","","","","","","","","","","","","","",""
"","","","","","html-keyboard-response","22","2.1.0","755558","null","","
    <div style=""text-align: center;"">
      <img src=""static/images/fix_cross.jpg"" style=""width: 400px; height: 400px; margin-bottom: 30px;"">
      <div style=""display: flex; justify-content: center; gap: 40px;"">
      <div style=""
        text-align: center;
        font-size: 24px;
        opacity: 0.3;
        border: 2px solid #999;
        border-radius: 8px;
        padding: 20px 15px;
        width: 60px;
        box-shadow: none;
      "">
        F<br>
      </div>
      <div style=""
        text-align: center;
        font-size: 24px;
        opacity: 0.3;
        border: 2px solid #999;
        border-radius: 8px;
        padding: 20px 15px;
        width: 60px;
        box-shadow: none;
      "">
        G<br>
      </div>
      <div style=""
        text-align: center;
        font-size: 24px;
        opacity: 1;
        border: 2px solid #000;
        border-radius: 8px;
        padding: 20px 15px;
        width: 60px;
        box-shadow: 0 0 10px #333;
      "">
        H<br>
      </div>
      <div style=""
        text-align: center;
        font-size: 24px;
        opacity: 1;
        border: 2px solid #000;
        border-radius: 8px;
        padding: 20px 15px;
        width: 60px;
        box-shadow: 0 0 10px #333;
      "">
        J<br>
      </div></div></div>","null","","","","","","","","","","","","","","","","","","",""
"","","","","","html-keyboard-response","23","2.1.0","757238","1679","","
    <div style=""text-align: center;"">
      <img src=""static/images/12.jpg"" style=""width: 400px; height: 400px; margin-bottom: 30px;"">
      <div style=""display: flex; justify-content: center; gap: 40px;"">
      <div style=""
        text-align: center;
        font-size: 24px;
        opacity: 0.3;
        border: 2px solid #999;
        border-radius: 8px;
        padding: 20px 15px;
        width: 60px;
        box-shadow: none;
      "">
        F<br>
      </div>
      <div style=""
        text-align: center;
        font-size: 24px;
        opacity: 0.3;
        border: 2px solid #999;
        border-radius: 8px;
        padding: 20px 15px;
        width: 60px;
        box-shadow: none;
      "">
        G<br>
      </div>
      <div style=""
        text-align: center;
        font-size: 24px;
        opacity: 1;
        border: 2px solid #000;
        border-radius: 8px;
        padding: 20px 15px;
        width: 60px;
        box-shadow: 0 0 10px #333;
      "">
        H<br>
      </div>
      <div style=""
        text-align: center;
        font-size: 24px;
        opacity: 1;
        border: 2px solid #000;
        border-radius: 8px;
        padding: 20px 15px;
        width: 60px;
        box-shadow: 0 0 10px #333;
      "">
        J<br>
      </div></div></div>","j","0","6","training","A3","g","f","j","h","{""A1"":0.93,""A2"":0.27,""A3"":0.73,""A4"":0.07}","1","[""A3"",""A4""]","[""j"",""h""]","12","false","0","0","0","3","1"
"","","","","","html-keyboard-response","24","2.1.0","758240","null","","
    <div style=""text-align: center;"">
      <img src=""static/images/feedback_0.jpg"" style=""width: 400px; height: 400px; margin-bottom: 30px;"">
      <div style=""display: flex; justify-content: center; gap: 40px;"">
      <div style=""
        text-align: center;
        font-size: 24px;
        opacity: 0.3;
        border: 2px solid #999;
        border-radius: 8px;
        padding: 20px 15px;
        width: 60px;
        box-shadow: none;
      "">
        F<br>
      </div>
      <div style=""
        text-align: center;
        font-size: 24px;
        opacity: 0.3;
        border: 2px solid #999;
        border-radius: 8px;
        padding: 20px 15px;
        width: 60px;
        box-shadow: none;
      "">
        G<br>
      </div>
      <div style=""
        text-align: center;
        font-size: 24px;
        opacity: 1;
        border: 2px solid #000;
        border-radius: 8px;
        padding: 20px 15px;
        width: 60px;
        box-shadow: 0 0 10px #333;
      "">
        H<br>
      </div>
      <div style=""
        text-align: center;
        font-size: 24px;
        opacity: 1;
        border: 2px solid #000;
        border-radius: 8px;
        padding: 20px 15px;
        width: 60px;
        box-shadow: 0 0 10px #333;
      "">
        J<br>
      </div></div></div>","null","","","","","","","","","","","","","","","","","","",""
"","","","","","html-keyboard-response","25","2.1.0","758743","null","","
    <div style=""text-align: center;"">
      <img src=""static/images/fix_cross.jpg"" style=""width: 400px; height: 400px; margin-bottom: 30px;"">
      <div style=""display: flex; justify-content: center; gap: 40px;"">
      <div style=""
        text-align: center;
        font-size: 24px;
        opacity: 0.3;
        border: 2px solid #999;
        border-radius: 8px;
        padding: 20px 15px;
        width: 60px;
        box-shadow: none;
      "">
        F<br>
      </div>
      <div style=""
        text-align: center;
        font-size: 24px;
        opacity: 0.3;
        border: 2px solid #999;
        border-radius: 8px;
        padding: 20px 15px;
        width: 60px;
        box-shadow: none;
      "">
        G<br>
      </div>
      <div style=""
        text-align: center;
        font-size: 24px;
        opacity: 1;
        border: 2px solid #000;
        border-radius: 8px;
        padding: 20px 15px;
        width: 60px;
        box-shadow: 0 0 10px #333;
      "">
        H<br>
      </div>
      <div style=""
        text-align: center;
        font-size: 24px;
        opacity: 1;
        border: 2px solid #000;
        border-radius: 8px;
        padding: 20px 15px;
        width: 60px;
        box-shadow: 0 0 10px #333;
      "">
        J<br>
      </div></div></div>","null","","","","","","","","","","","","","","","","","","",""
"","","","","","html-keyboard-response","26","2.1.0","759839","1095","","
    <div style=""text-align: center;"">
      <img src=""static/images/h.jpg"" style=""width: 400px; height: 400px; margin-bottom: 30px;"">
      <div style=""display: flex; justify-content: center; gap: 40px;"">
      <div style=""
        text-align: center;
        font-size: 24px;
        opacity: 0.3;
        border: 2px solid #999;
        border-radius: 8px;
        padding: 20px 15px;
        width: 60px;
        box-shadow: none;
      "">
        F<br>
      </div>
      <div style=""
        text-align: center;
        font-size: 24px;
        opacity: 0.3;
        border: 2px solid #999;
        border-radius: 8px;
        padding: 20px 15px;
        width: 60px;
        box-shadow: none;
      "">
        G<br>
      </div>
      <div style=""
        text-align: center;
        font-size: 24px;
        opacity: 1;
        border: 2px solid #000;
        border-radius: 8px;
        padding: 20px 15px;
        width: 60px;
        box-shadow: 0 0 10px #333;
      "">
        H<br>
      </div>
      <div style=""
        text-align: center;
        font-size: 24px;
        opacity: 1;
        border: 2px solid #000;
        border-radius: 8px;
        padding: 20px 15px;
        width: 60px;
        box-shadow: 0 0 10px #333;
      "">
        J<br>
      </div></div></div>","h","0","7","training","A4","g","f","j","h","{""A1"":0.93,""A2"":0.27,""A3"":0.73,""A4"":0.07}","1","[""A3"",""A4""]","[""j"",""h""]","h","true","1","","","",""
"","","","","","html-keyboard-response","27","2.1.0","760841","null","","<p style='color:green; font-size: 48px;'>Correct!</p>","null","","","","","","","","","","","","","","","","","","",""
"","","","","","html-keyboard-response","28","2.1.0","761343","null","","
    <div style=""text-align: center;"">
      <img src=""static/images/fix_cross.jpg"" style=""width: 400px; height: 400px; margin-bottom: 30px;"">
      <div style=""display: flex; justify-content: center; gap: 40px;"">
      <div style=""
        text-align: center;
        font-size: 24px;
        opacity: 0.3;
        border: 2px solid #999;
        border-radius: 8px;
        padding: 20px 15px;
        width: 60px;
        box-shadow: none;
      "">
        F<br>
      </div>
      <div style=""
        text-align: center;
        font-size: 24px;
        opacity: 0.3;
        border: 2px solid #999;
        border-radius: 8px;
        padding: 20px 15px;
        width: 60px;
        box-shadow: none;
      "">
        G<br>
      </div>
      <div style=""
        text-align: center;
        font-size: 24px;
        opacity: 1;
        border: 2px solid #000;
        border-radius: 8px;
        padding: 20px 15px;
        width: 60px;
        box-shadow: 0 0 10px #333;
      "">
        H<br>
      </div>
      <div style=""
        text-align: center;
        font-size: 24px;
        opacity: 1;
        border: 2px solid #000;
        border-radius: 8px;
        padding: 20px 15px;
        width: 60px;
        box-shadow: 0 0 10px #333;
      "">
        J<br>
      </div></div></div>","null","","","","","","","","","","","","","","","","","","",""
"","","","","","html-keyboard-response","29","2.1.0","762239","894","","
    <div style=""text-align: center;"">
      <img src=""static/images/12.jpg"" style=""width: 400px; height: 400px; margin-bottom: 30px;"">
      <div style=""display: flex; justify-content: center; gap: 40px;"">
      <div style=""
        text-align: center;
        font-size: 24px;
        opacity: 0.3;
        border: 2px solid #999;
        border-radius: 8px;
        padding: 20px 15px;
        width: 60px;
        box-shadow: none;
      "">
        F<br>
      </div>
      <div style=""
        text-align: center;
        font-size: 24px;
        opacity: 0.3;
        border: 2px solid #999;
        border-radius: 8px;
        padding: 20px 15px;
        width: 60px;
        box-shadow: none;
      "">
        G<br>
      </div>
      <div style=""
        text-align: center;
        font-size: 24px;
        opacity: 1;
        border: 2px solid #000;
        border-radius: 8px;
        padding: 20px 15px;
        width: 60px;
        box-shadow: 0 0 10px #333;
      "">
        H<br>
      </div>
      <div style=""
        text-align: center;
        font-size: 24px;
        opacity: 1;
        border: 2px solid #000;
        border-radius: 8px;
        padding: 20px 15px;
        width: 60px;
        box-shadow: 0 0 10px #333;
      "">
        J<br>
      </div></div></div>","j","0","7","training","A3","g","f","j","h","{""A1"":0.93,""A2"":0.27,""A3"":0.73,""A4"":0.07}","1","[""A3"",""A4""]","[""j"",""h""]","12","false","1","0","0","4","1"
"","","","","","html-keyboard-response","30","2.1.0","763241","null","","
    <div style=""text-align: center;"">
      <img src=""static/images/feedback_1.jpg"" style=""width: 400px; height: 400px; margin-bottom: 30px;"">
      <div style=""display: flex; justify-content: center; gap: 40px;"">
      <div style=""
        text-align: center;
        font-size: 24px;
        opacity: 0.3;
        border: 2px solid #999;
        border-radius: 8px;
        padding: 20px 15px;
        width: 60px;
        box-shadow: none;
      "">
        F<br>
      </div>
      <div style=""
        text-align: center;
        font-size: 24px;
        opacity: 0.3;
        border: 2px solid #999;
        border-radius: 8px;
        padding: 20px 15px;
        width: 60px;
        box-shadow: none;
      "">
        G<br>
      </div>
      <div style=""
        text-align: center;
        font-size: 24px;
        opacity: 1;
        border: 2px solid #000;
        border-radius: 8px;
        padding: 20px 15px;
        width: 60px;
        box-shadow: 0 0 10px #333;
      "">
        H<br>
      </div>
      <div style=""
        text-align: center;
        font-size: 24px;
        opacity: 1;
        border: 2px solid #000;
        border-radius: 8px;
        padding: 20px 15px;
        width: 60px;
        box-shadow: 0 0 10px #333;
      "">
        J<br>
      </div></div></div>","null","","","","","","","","","","","","","","","","","","",""
"","","","","","html-keyboard-response","31","2.1.0","763743","null","","
    <div style=""text-align: center;"">
      <img src=""static/images/fix_cross.jpg"" style=""width: 400px; height: 400px; margin-bottom: 30px;"">
      <div style=""display: flex; justify-content: center; gap: 40px;"">
      <div style=""
        text-align: center;
        font-size: 24px;
        opacity: 0.3;
        border: 2px solid #999;
        border-radius: 8px;
        padding: 20px 15px;
        width: 60px;
        box-shadow: none;
      "">
        F<br>
      </div>
      <div style=""
        text-align: center;
        font-size: 24px;
        opacity: 0.3;
        border: 2px solid #999;
        border-radius: 8px;
        padding: 20px 15px;
        width: 60px;
        box-shadow: none;
      "">
        G<br>
      </div>
      <div style=""
        text-align: center;
        font-size: 24px;
        opacity: 1;
        border: 2px solid #000;
        border-radius: 8px;
        padding: 20px 15px;
        width: 60px;
        box-shadow: 0 0 10px #333;
      "">
        H<br>
      </div>
      <div style=""
        text-align: center;
        font-size: 24px;
        opacity: 1;
        border: 2px solid #000;
        border-radius: 8px;
        padding: 20px 15px;
        width: 60px;
        box-shadow: 0 0 10px #333;
      "">
        J<br>
      </div></div></div>","null","","","","","","","","","","","","","","","","","","",""
"","","","","","html-keyboard-response","32","2.1.0","764661","916","","
    <div style=""text-align: center;"">
      <img src=""static/images/7.jpg"" style=""width: 400px; height: 400px; margin-bottom: 30px;"">
      <div style=""display: flex; justify-content: center; gap: 40px;"">
      <div style=""
        text-align: center;
        font-size: 24px;
        opacity: 0.3;
        border: 2px solid #999;
        border-radius: 8px;
        padding: 20px 15px;
        width: 60px;
        box-shadow: none;
      "">
        F<br>
      </div>
      <div style=""
        text-align: center;
        font-size: 24px;
        opacity: 0.3;
        border: 2px solid #999;
        border-radius: 8px;
        padding: 20px 15px;
        width: 60px;
        box-shadow: none;
      "">
        G<br>
      </div>
      <div style=""
        text-align: center;
        font-size: 24px;
        opacity: 1;
        border: 2px solid #000;
        border-radius: 8px;
        padding: 20px 15px;
        width: 60px;
        box-shadow: 0 0 10px #333;
      "">
        H<br>
      </div>
      <div style=""
        text-align: center;
        font-size: 24px;
        opacity: 1;
        border: 2px solid #000;
        border-radius: 8px;
        padding: 20px 15px;
        width: 60px;
        box-shadow: 0 0 10px #333;
      "">
        J<br>
      </div></div></div>","h","0","8","training","A3","f","g","h","j","{""A1"":0.93,""A2"":0.27,""A3"":0.73,""A4"":0.07}","1","[""A3"",""A4""]","[""j"",""h""]","7","false","1","0","0","4","0"
"","","","","","html-keyboard-response","33","2.1.0","765664","null","","
    <div style=""text-align: center;"">
      <img src=""static/images/feedback_1.jpg"" style=""width: 400px; height: 400px; margin-bottom: 30px;"">
      <div style=""display: flex; justify-content: center; gap: 40px;"">
      <div style=""
        text-align: center;
        font-size: 24px;
        opacity: 0.3;
        border: 2px solid #999;
        border-radius: 8px;
        padding: 20px 15px;
        width: 60px;
        box-shadow: none;
      "">
        F<br>
      </div>
      <div style=""
        text-align: center;
        font-size: 24px;
        opacity: 0.3;
        border: 2px solid #999;
        border-radius: 8px;
        padding: 20px 15px;
        width: 60px;
        box-shadow: none;
      "">
        G<br>
      </div>
      <div style=""
        text-align: center;
        font-size: 24px;
        opacity: 1;
        border: 2px solid #000;
        border-radius: 8px;
        padding: 20px 15px;
        width: 60px;
        box-shadow: 0 0 10px #333;
      "">
        H<br>
      </div>
      <div style=""
        text-align: center;
        font-size: 24px;
        opacity: 1;
        border: 2px solid #000;
        border-radius: 8px;
        padding: 20px 15px;
        width: 60px;
        box-shadow: 0 0 10px #333;
      "">
        J<br>
      </div></div></div>","null","","","","","","","","","","","","","","","","","","",""
"","","","","","html-keyboard-response","34","2.1.0","766167","null","","
    <div style=""text-align: center;"">
      <img src=""static/images/fix_cross.jpg"" style=""width: 400px; height: 400px; margin-bottom: 30px;"">
      <div style=""display: flex; justify-content: center; gap: 40px;"">
      <div style=""
        text-align: center;
        font-size: 24px;
        opacity: 0.3;
        border: 2px solid #999;
        border-radius: 8px;
        padding: 20px 15px;
        width: 60px;
        box-shadow: none;
      "">
        F<br>
      </div>
      <div style=""
        text-align: center;
        font-size: 24px;
        opacity: 0.3;
        border: 2px solid #999;
        border-radius: 8px;
        padding: 20px 15px;
        width: 60px;
        box-shadow: none;
      "">
        G<br>
      </div>
      <div style=""
        text-align: center;
        font-size: 24px;
        opacity: 1;
        border: 2px solid #000;
        border-radius: 8px;
        padding: 20px 15px;
        width: 60px;
        box-shadow: 0 0 10px #333;
      "">
        H<br>
      </div>
      <div style=""
        text-align: center;
        font-size: 24px;
        opacity: 1;
        border: 2px solid #000;
        border-radius: 8px;
        padding: 20px 15px;
        width: 60px;
        box-shadow: 0 0 10px #333;
      "">
        J<br>
      </div></div></div>","null","","","","","","","","","","","","","","","","","","",""
"","","","","","html-keyboard-response","35","2.1.0","766935","767","","
    <div style=""text-align: center;"">
      <img src=""static/images/12.jpg"" style=""width: 400px; height: 400px; margin-bottom: 30px;"">
      <div style=""display: flex; justify-content: center; gap: 40px;"">
      <div style=""
        text-align: center;
        font-size: 24px;
        opacity: 0.3;
        border: 2px solid #999;
        border-radius: 8px;
        padding: 20px 15px;
        width: 60px;
        box-shadow: none;
      "">
        F<br>
      </div>
      <div style=""
        text-align: center;
        font-size: 24px;
        opacity: 0.3;
        border: 2px solid #999;
        border-radius: 8px;
        padding: 20px 15px;
        width: 60px;
        box-shadow: none;
      "">
        G<br>
      </div>
      <div style=""
        text-align: center;
        font-size: 24px;
        opacity: 1;
        border: 2px solid #000;
        border-radius: 8px;
        padding: 20px 15px;
        width: 60px;
        box-shadow: 0 0 10px #333;
      "">
        H<br>
      </div>
      <div style=""
        text-align: center;
        font-size: 24px;
        opacity: 1;
        border: 2px solid #000;
        border-radius: 8px;
        padding: 20px 15px;
        width: 60px;
        box-shadow: 0 0 10px #333;
      "">
        J<br>
      </div></div></div>","j","0","9","training","A3","g","f","j","h","{""A1"":0.93,""A2"":0.27,""A3"":0.73,""A4"":0.07}","1","[""A3"",""A4""]","[""j"",""h""]","12","false","0","0","0","5","1"
"","","","","","html-keyboard-response","36","2.1.0","767937","null","","
    <div style=""text-align: center;"">
      <img src=""static/images/feedback_0.jpg"" style=""width: 400px; height: 400px; margin-bottom: 30px;"">
      <div style=""display: flex; justify-content: center; gap: 40px;"">
      <div style=""
        text-align: center;
        font-size: 24px;
        opacity: 0.3;
        border: 2px solid #999;
        border-radius: 8px;
        padding: 20px 15px;
        width: 60px;
        box-shadow: none;
      "">
        F<br>
      </div>
      <div style=""
        text-align: center;
        font-size: 24px;
        opacity: 0.3;
        border: 2px solid #999;
        border-radius: 8px;
        padding: 20px 15px;
        width: 60px;
        box-shadow: none;
      "">
        G<br>
      </div>
      <div style=""
        text-align: center;
        font-size: 24px;
        opacity: 1;
        border: 2px solid #000;
        border-radius: 8px;
        padding: 20px 15px;
        width: 60px;
        box-shadow: 0 0 10px #333;
      "">
        H<br>
      </div>
      <div style=""
        text-align: center;
        font-size: 24px;
        opacity: 1;
        border: 2px solid #000;
        border-radius: 8px;
        padding: 20px 15px;
        width: 60px;
        box-shadow: 0 0 10px #333;
      "">
        J<br>
      </div></div></div>","null","","","","","","","","","","","","","","","","","","",""
"","","","","","html-keyboard-response","37","2.1.0","768440","null","","
    <div style=""text-align: center;"">
      <img src=""static/images/fix_cross.jpg"" style=""width: 400px; height: 400px; margin-bottom: 30px;"">
      <div style=""display: flex; justify-content: center; gap: 40px;"">
      <div style=""
        text-align: center;
        font-size: 24px;
        opacity: 0.3;
        border: 2px solid #999;
        border-radius: 8px;
        padding: 20px 15px;
        width: 60px;
        box-shadow: none;
      "">
        F<br>
      </div>
      <div style=""
        text-align: center;
        font-size: 24px;
        opacity: 0.3;
        border: 2px solid #999;
        border-radius: 8px;
        padding: 20px 15px;
        width: 60px;
        box-shadow: none;
      "">
        G<br>
      </div>
      <div style=""
        text-align: center;
        font-size: 24px;
        opacity: 1;
        border: 2px solid #000;
        border-radius: 8px;
        padding: 20px 15px;
        width: 60px;
        box-shadow: 0 0 10px #333;
      "">
        H<br>
      </div>
      <div style=""
        text-align: center;
        font-size: 24px;
        opacity: 1;
        border: 2px solid #000;
        border-radius: 8px;
        padding: 20px 15px;
        width: 60px;
        box-shadow: 0 0 10px #333;
      "">
        J<br>
      </div></div></div>","null","","","","","","","","","","","","","","","","","","",""
"","","","","","html-keyboard-response","38","2.1.0","769038","596","","
    <div style=""text-align: center;"">
      <img src=""static/images/12.jpg"" style=""width: 400px; height: 400px; margin-bottom: 30px;"">
      <div style=""display: flex; justify-content: center; gap: 40px;"">
      <div style=""
        text-align: center;
        font-size: 24px;
        opacity: 0.3;
        border: 2px solid #999;
        border-radius: 8px;
        padding: 20px 15px;
        width: 60px;
        box-shadow: none;
      "">
        F<br>
      </div>
      <div style=""
        text-align: center;
        font-size: 24px;
        opacity: 0.3;
        border: 2px solid #999;
        border-radius: 8px;
        padding: 20px 15px;
        width: 60px;
        box-shadow: none;
      "">
        G<br>
      </div>
      <div style=""
        text-align: center;
        font-size: 24px;
        opacity: 1;
        border: 2px solid #000;
        border-radius: 8px;
        padding: 20px 15px;
        width: 60px;
        box-shadow: 0 0 10px #333;
      "">
        H<br>
      </div>
      <div style=""
        text-align: center;
        font-size: 24px;
        opacity: 1;
        border: 2px solid #000;
        border-radius: 8px;
        padding: 20px 15px;
        width: 60px;
        box-shadow: 0 0 10px #333;
      "">
        J<br>
      </div></div></div>","j","0","10","training","A3","g","f","j","h","{""A1"":0.93,""A2"":0.27,""A3"":0.73,""A4"":0.07}","1","[""A3"",""A4""]","[""j"",""h""]","12","false","1","0","0","6","1"
"","","","","","html-keyboard-response","39","2.1.0","770041","null","","
    <div style=""text-align: center;"">
      <img src=""static/images/feedback_1.jpg"" style=""width: 400px; height: 400px; margin-bottom: 30px;"">
      <div style=""display: flex; justify-content: center; gap: 40px;"">
      <div style=""
        text-align: center;
        font-size: 24px;
        opacity: 0.3;
        border: 2px solid #999;
        border-radius: 8px;
        padding: 20px 15px;
        width: 60px;
        box-shadow: none;
      "">
        F<br>
      </div>
      <div style=""
        text-align: center;
        font-size: 24px;
        opacity: 0.3;
        border: 2px solid #999;
        border-radius: 8px;
        padding: 20px 15px;
        width: 60px;
        box-shadow: none;
      "">
        G<br>
      </div>
      <div style=""
        text-align: center;
        font-size: 24px;
        opacity: 1;
        border: 2px solid #000;
        border-radius: 8px;
        padding: 20px 15px;
        width: 60px;
        box-shadow: 0 0 10px #333;
      "">
        H<br>
      </div>
      <div style=""
        text-align: center;
        font-size: 24px;
        opacity: 1;
        border: 2px solid #000;
        border-radius: 8px;
        padding: 20px 15px;
        width: 60px;
        box-shadow: 0 0 10px #333;
      "">
        J<br>
      </div></div></div>","null","","","","","","","","","","","","","","","","","","",""
"","","","","","html-keyboard-response","40","2.1.0","770543","null","","
    <div style=""text-align: center;"">
      <img src=""static/images/fix_cross.jpg"" style=""width: 400px; height: 400px; margin-bottom: 30px;"">
      <div style=""display: flex; justify-content: center; gap: 40px;"">
      <div style=""
        text-align: center;
        font-size: 24px;
        opacity: 0.3;
        border: 2px solid #999;
        border-radius: 8px;
        padding: 20px 15px;
        width: 60px;
        box-shadow: none;
      "">
        F<br>
      </div>
      <div style=""
        text-align: center;
        font-size: 24px;
        opacity: 0.3;
        border: 2px solid #999;
        border-radius: 8px;
        padding: 20px 15px;
        width: 60px;
        box-shadow: none;
      "">
        G<br>
      </div>
      <div style=""
        text-align: center;
        font-size: 24px;
        opacity: 1;
        border: 2px solid #000;
        border-radius: 8px;
        padding: 20px 15px;
        width: 60px;
        box-shadow: 0 0 10px #333;
      "">
        H<br>
      </div>
      <div style=""
        text-align: center;
        font-size: 24px;
        opacity: 1;
        border: 2px solid #000;
        border-radius: 8px;
        padding: 20px 15px;
        width: 60px;
        box-shadow: 0 0 10px #333;
      "">
        J<br>
      </div></div></div>","null","","","","","","","","","","","","","","","","","","",""
"","","","","","html-keyboard-response","41","2.1.0","771071","526","","
    <div style=""text-align: center;"">
      <img src=""static/images/12.jpg"" style=""width: 400px; height: 400px; margin-bottom: 30px;"">
      <div style=""display: flex; justify-content: center; gap: 40px;"">
      <div style=""
        text-align: center;
        font-size: 24px;
        opacity: 0.3;
        border: 2px solid #999;
        border-radius: 8px;
        padding: 20px 15px;
        width: 60px;
        box-shadow: none;
      "">
        F<br>
      </div>
      <div style=""
        text-align: center;
        font-size: 24px;
        opacity: 0.3;
        border: 2px solid #999;
        border-radius: 8px;
        padding: 20px 15px;
        width: 60px;
        box-shadow: none;
      "">
        G<br>
      </div>
      <div style=""
        text-align: center;
        font-size: 24px;
        opacity: 1;
        border: 2px solid #000;
        border-radius: 8px;
        padding: 20px 15px;
        width: 60px;
        box-shadow: 0 0 10px #333;
      "">
        H<br>
      </div>
      <div style=""
        text-align: center;
        font-size: 24px;
        opacity: 1;
        border: 2px solid #000;
        border-radius: 8px;
        padding: 20px 15px;
        width: 60px;
        box-shadow: 0 0 10px #333;
      "">
        J<br>
      </div></div></div>","j","0","11","training","A3","g","f","j","h","{""A1"":0.93,""A2"":0.27,""A3"":0.73,""A4"":0.07}","1","[""A3"",""A4""]","[""j"",""h""]","12","false","1","0","0","7","1"
"","","","","","html-keyboard-response","42","2.1.0","772074","null","","
    <div style=""text-align: center;"">
      <img src=""static/images/feedback_1.jpg"" style=""width: 400px; height: 400px; margin-bottom: 30px;"">
      <div style=""display: flex; justify-content: center; gap: 40px;"">
      <div style=""
        text-align: center;
        font-size: 24px;
        opacity: 0.3;
        border: 2px solid #999;
        border-radius: 8px;
        padding: 20px 15px;
        width: 60px;
        box-shadow: none;
      "">
        F<br>
      </div>
      <div style=""
        text-align: center;
        font-size: 24px;
        opacity: 0.3;
        border: 2px solid #999;
        border-radius: 8px;
        padding: 20px 15px;
        width: 60px;
        box-shadow: none;
      "">
        G<br>
      </div>
      <div style=""
        text-align: center;
        font-size: 24px;
        opacity: 1;
        border: 2px solid #000;
        border-radius: 8px;
        padding: 20px 15px;
        width: 60px;
        box-shadow: 0 0 10px #333;
      "">
        H<br>
      </div>
      <div style=""
        text-align: center;
        font-size: 24px;
        opacity: 1;
        border: 2px solid #000;
        border-radius: 8px;
        padding: 20px 15px;
        width: 60px;
        box-shadow: 0 0 10px #333;
      "">
        J<br>
      </div></div></div>","null","","","","","","","","","","","","","","","","","","",""
"","","","","","html-keyboard-response","43","2.1.0","772575","null","","
    <div style=""text-align: center;"">
      <img src=""static/images/fix_cross.jpg"" style=""width: 400px; height: 400px; margin-bottom: 30px;"">
      <div style=""display: flex; justify-content: center; gap: 40px;"">
      <div style=""
        text-align: center;
        font-size: 24px;
        opacity: 0.3;
        border: 2px solid #999;
        border-radius: 8px;
        padding: 20px 15px;
        width: 60px;
        box-shadow: none;
      "">
        F<br>
      </div>
      <div style=""
        text-align: center;
        font-size: 24px;
        opacity: 0.3;
        border: 2px solid #999;
        border-radius: 8px;
        padding: 20px 15px;
        width: 60px;
        box-shadow: none;
      "">
        G<br>
      </div>
      <div style=""
        text-align: center;
        font-size: 24px;
        opacity: 1;
        border: 2px solid #000;
        border-radius: 8px;
        padding: 20px 15px;
        width: 60px;
        box-shadow: 0 0 10px #333;
      "">
        H<br>
      </div>
      <div style=""
        text-align: center;
        font-size: 24px;
        opacity: 1;
        border: 2px solid #000;
        border-radius: 8px;
        padding: 20px 15px;
        width: 60px;
        box-shadow: 0 0 10px #333;
      "">
        J<br>
      </div></div></div>","null","","","","","","","","","","","","","","","","","","",""
"","","","","","html-keyboard-response","44","2.1.0","773045","469","","
    <div style=""text-align: center;"">
      <img src=""static/images/12.jpg"" style=""width: 400px; height: 400px; margin-bottom: 30px;"">
      <div style=""display: flex; justify-content: center; gap: 40px;"">
      <div style=""
        text-align: center;
        font-size: 24px;
        opacity: 0.3;
        border: 2px solid #999;
        border-radius: 8px;
        padding: 20px 15px;
        width: 60px;
        box-shadow: none;
      "">
        F<br>
      </div>
      <div style=""
        text-align: center;
        font-size: 24px;
        opacity: 0.3;
        border: 2px solid #999;
        border-radius: 8px;
        padding: 20px 15px;
        width: 60px;
        box-shadow: none;
      "">
        G<br>
      </div>
      <div style=""
        text-align: center;
        font-size: 24px;
        opacity: 1;
        border: 2px solid #000;
        border-radius: 8px;
        padding: 20px 15px;
        width: 60px;
        box-shadow: 0 0 10px #333;
      "">
        H<br>
      </div>
      <div style=""
        text-align: center;
        font-size: 24px;
        opacity: 1;
        border: 2px solid #000;
        border-radius: 8px;
        padding: 20px 15px;
        width: 60px;
        box-shadow: 0 0 10px #333;
      "">
        J<br>
      </div></div></div>","j","0","12","training","A3","g","f","j","h","{""A1"":0.93,""A2"":0.27,""A3"":0.73,""A4"":0.07}","1","[""A3"",""A4""]","[""j"",""h""]","12","false","0","0","0","8","1"
"","","","","","html-keyboard-response","45","2.1.0","774048","null","","
    <div style=""text-align: center;"">
      <img src=""static/images/feedback_0.jpg"" style=""width: 400px; height: 400px; margin-bottom: 30px;"">
      <div style=""display: flex; justify-content: center; gap: 40px;"">
      <div style=""
        text-align: center;
        font-size: 24px;
        opacity: 0.3;
        border: 2px solid #999;
        border-radius: 8px;
        padding: 20px 15px;
        width: 60px;
        box-shadow: none;
      "">
        F<br>
      </div>
      <div style=""
        text-align: center;
        font-size: 24px;
        opacity: 0.3;
        border: 2px solid #999;
        border-radius: 8px;
        padding: 20px 15px;
        width: 60px;
        box-shadow: none;
      "">
        G<br>
      </div>
      <div style=""
        text-align: center;
        font-size: 24px;
        opacity: 1;
        border: 2px solid #000;
        border-radius: 8px;
        padding: 20px 15px;
        width: 60px;
        box-shadow: 0 0 10px #333;
      "">
        H<br>
      </div>
      <div style=""
        text-align: center;
        font-size: 24px;
        opacity: 1;
        border: 2px solid #000;
        border-radius: 8px;
        padding: 20px 15px;
        width: 60px;
        box-shadow: 0 0 10px #333;
      "">
        J<br>
      </div></div></div>","null","","","","","","","","","","","","","","","","","","",""
"","","","","","html-keyboard-response","46","2.1.0","774550","null","","
    <div style=""text-align: center;"">
      <img src=""static/images/fix_cross.jpg"" style=""width: 400px; height: 400px; margin-bottom: 30px;"">
      <div style=""display: flex; justify-content: center; gap: 40px;"">
      <div style=""
        text-align: center;
        font-size: 24px;
        opacity: 0.3;
        border: 2px solid #999;
        border-radius: 8px;
        padding: 20px 15px;
        width: 60px;
        box-shadow: none;
      "">
        F<br>
      </div>
      <div style=""
        text-align: center;
        font-size: 24px;
        opacity: 0.3;
        border: 2px solid #999;
        border-radius: 8px;
        padding: 20px 15px;
        width: 60px;
        box-shadow: none;
      "">
        G<br>
      </div>
      <div style=""
        text-align: center;
        font-size: 24px;
        opacity: 1;
        border: 2px solid #000;
        border-radius: 8px;
        padding: 20px 15px;
        width: 60px;
        box-shadow: 0 0 10px #333;
      "">
        H<br>
      </div>
      <div style=""
        text-align: center;
        font-size: 24px;
        opacity: 1;
        border: 2px solid #000;
        border-radius: 8px;
        padding: 20px 15px;
        width: 60px;
        box-shadow: 0 0 10px #333;
      "">
        J<br>
      </div></div></div>","null","","","","","","","","","","","","","","","","","","",""
"","","","","","html-keyboard-response","47","2.1.0","775168","616","","
    <div style=""text-align: center;"">
      <img src=""static/images/7.jpg"" style=""width: 400px; height: 400px; margin-bottom: 30px;"">
      <div style=""display: flex; justify-content: center; gap: 40px;"">
      <div style=""
        text-align: center;
        font-size: 24px;
        opacity: 0.3;
        border: 2px solid #999;
        border-radius: 8px;
        padding: 20px 15px;
        width: 60px;
        box-shadow: none;
      "">
        F<br>
      </div>
      <div style=""
        text-align: center;
        font-size: 24px;
        opacity: 0.3;
        border: 2px solid #999;
        border-radius: 8px;
        padding: 20px 15px;
        width: 60px;
        box-shadow: none;
      "">
        G<br>
      </div>
      <div style=""
        text-align: center;
        font-size: 24px;
        opacity: 1;
        border: 2px solid #000;
        border-radius: 8px;
        padding: 20px 15px;
        width: 60px;
        box-shadow: 0 0 10px #333;
      "">
        H<br>
      </div>
      <div style=""
        text-align: center;
        font-size: 24px;
        opacity: 1;
        border: 2px solid #000;
        border-radius: 8px;
        padding: 20px 15px;
        width: 60px;
        box-shadow: 0 0 10px #333;
      "">
        J<br>
      </div></div></div>","h","0","13","training","A3","f","g","h","j","{""A1"":0.93,""A2"":0.27,""A3"":0.73,""A4"":0.07}","1","[""A3"",""A4""]","[""j"",""h""]","7","false","1","0","0","5","0"
"","","","","","html-keyboard-response","48","2.1.0","776171","null","","
    <div style=""text-align: center;"">
      <img src=""static/images/feedback_1.jpg"" style=""width: 400px; height: 400px; margin-bottom: 30px;"">
      <div style=""display: flex; justify-content: center; gap: 40px;"">
      <div style=""
        text-align: center;
        font-size: 24px;
        opacity: 0.3;
        border: 2px solid #999;
        border-radius: 8px;
        padding: 20px 15px;
        width: 60px;
        box-shadow: none;
      "">
        F<br>
      </div>
      <div style=""
        text-align: center;
        font-size: 24px;
        opacity: 0.3;
        border: 2px solid #999;
        border-radius: 8px;
        padding: 20px 15px;
        width: 60px;
        box-shadow: none;
      "">
        G<br>
      </div>
      <div style=""
        text-align: center;
        font-size: 24px;
        opacity: 1;
        border: 2px solid #000;
        border-radius: 8px;
        padding: 20px 15px;
        width: 60px;
        box-shadow: 0 0 10px #333;
      "">
        H<br>
      </div>
      <div style=""
        text-align: center;
        font-size: 24px;
        opacity: 1;
        border: 2px solid #000;
        border-radius: 8px;
        padding: 20px 15px;
        width: 60px;
        box-shadow: 0 0 10px #333;
      "">
        J<br>
      </div></div></div>","null","","","","","","","","","","","","","","","","","","",""
"","","","","","html-keyboard-response","49","2.1.0","776674","null","","
    <div style=""text-align: center;"">
      <img src=""static/images/fix_cross.jpg"" style=""width: 400px; height: 400px; margin-bottom: 30px;"">
      <div style=""display: flex; justify-content: center; gap: 40px;"">
      <div style=""
        text-align: center;
        font-size: 24px;
        opacity: 0.3;
        border: 2px solid #999;
        border-radius: 8px;
        padding: 20px 15px;
        width: 60px;
        box-shadow: none;
      "">
        F<br>
      </div>
      <div style=""
        text-align: center;
        font-size: 24px;
        opacity: 0.3;
        border: 2px solid #999;
        border-radius: 8px;
        padding: 20px 15px;
        width: 60px;
        box-shadow: none;
      "">
        G<br>
      </div>
      <div style=""
        text-align: center;
        font-size: 24px;
        opacity: 1;
        border: 2px solid #000;
        border-radius: 8px;
        padding: 20px 15px;
        width: 60px;
        box-shadow: 0 0 10px #333;
      "">
        H<br>
      </div>
      <div style=""
        text-align: center;
        font-size: 24px;
        opacity: 1;
        border: 2px solid #000;
        border-radius: 8px;
        padding: 20px 15px;
        width: 60px;
        box-shadow: 0 0 10px #333;
      "">
        J<br>
      </div></div></div>","null","","","","","","","","","","","","","","","","","","",""
"","","","","","html-keyboard-response","50","2.1.0","777563","887","","
    <div style=""text-align: center;"">
      <img src=""static/images/12.jpg"" style=""width: 400px; height: 400px; margin-bottom: 30px;"">
      <div style=""display: flex; justify-content: center; gap: 40px;"">
      <div style=""
        text-align: center;
        font-size: 24px;
        opacity: 0.3;
        border: 2px solid #999;
        border-radius: 8px;
        padding: 20px 15px;
        width: 60px;
        box-shadow: none;
      "">
        F<br>
      </div>
      <div style=""
        text-align: center;
        font-size: 24px;
        opacity: 0.3;
        border: 2px solid #999;
        border-radius: 8px;
        padding: 20px 15px;
        width: 60px;
        box-shadow: none;
      "">
        G<br>
      </div>
      <div style=""
        text-align: center;
        font-size: 24px;
        opacity: 1;
        border: 2px solid #000;
        border-radius: 8px;
        padding: 20px 15px;
        width: 60px;
        box-shadow: 0 0 10px #333;
      "">
        H<br>
      </div>
      <div style=""
        text-align: center;
        font-size: 24px;
        opacity: 1;
        border: 2px solid #000;
        border-radius: 8px;
        padding: 20px 15px;
        width: 60px;
        box-shadow: 0 0 10px #333;
      "">
        J<br>
      </div></div></div>","j","0","14","training","A3","g","f","j","h","{""A1"":0.93,""A2"":0.27,""A3"":0.73,""A4"":0.07}","1","[""A3"",""A4""]","[""j"",""h""]","12","false","1","0","0","9","1"
"","","","","","html-keyboard-response","51","2.1.0","778565","null","","
    <div style=""text-align: center;"">
      <img src=""static/images/feedback_1.jpg"" style=""width: 400px; height: 400px; margin-bottom: 30px;"">
      <div style=""display: flex; justify-content: center; gap: 40px;"">
      <div style=""
        text-align: center;
        font-size: 24px;
        opacity: 0.3;
        border: 2px solid #999;
        border-radius: 8px;
        padding: 20px 15px;
        width: 60px;
        box-shadow: none;
      "">
        F<br>
      </div>
      <div style=""
        text-align: center;
        font-size: 24px;
        opacity: 0.3;
        border: 2px solid #999;
        border-radius: 8px;
        padding: 20px 15px;
        width: 60px;
        box-shadow: none;
      "">
        G<br>
      </div>
      <div style=""
        text-align: center;
        font-size: 24px;
        opacity: 1;
        border: 2px solid #000;
        border-radius: 8px;
        padding: 20px 15px;
        width: 60px;
        box-shadow: 0 0 10px #333;
      "">
        H<br>
      </div>
      <div style=""
        text-align: center;
        font-size: 24px;
        opacity: 1;
        border: 2px solid #000;
        border-radius: 8px;
        padding: 20px 15px;
        width: 60px;
        box-shadow: 0 0 10px #333;
      "">
        J<br>
      </div></div></div>","null","","","","","","","","","","","","","","","","","","",""
"","","","","","html-keyboard-response","52","2.1.0","779068","null","","
    <div style=""text-align: center;"">
      <img src=""static/images/fix_cross.jpg"" style=""width: 400px; height: 400px; margin-bottom: 30px;"">
      <div style=""display: flex; justify-content: center; gap: 40px;"">
      <div style=""
        text-align: center;
        font-size: 24px;
        opacity: 0.3;
        border: 2px solid #999;
        border-radius: 8px;
        padding: 20px 15px;
        width: 60px;
        box-shadow: none;
      "">
        F<br>
      </div>
      <div style=""
        text-align: center;
        font-size: 24px;
        opacity: 0.3;
        border: 2px solid #999;
        border-radius: 8px;
        padding: 20px 15px;
        width: 60px;
        box-shadow: none;
      "">
        G<br>
      </div>
      <div style=""
        text-align: center;
        font-size: 24px;
        opacity: 1;
        border: 2px solid #000;
        border-radius: 8px;
        padding: 20px 15px;
        width: 60px;
        box-shadow: 0 0 10px #333;
      "">
        H<br>
      </div>
      <div style=""
        text-align: center;
        font-size: 24px;
        opacity: 1;
        border: 2px solid #000;
        border-radius: 8px;
        padding: 20px 15px;
        width: 60px;
        box-shadow: 0 0 10px #333;
      "">
        J<br>
      </div></div></div>","null","","","","","","","","","","","","","","","","","","",""
"","","","","","html-keyboard-response","53","2.1.0","780188","1120","","
    <div style=""text-align: center;"">
      <img src=""static/images/7.jpg"" style=""width: 400px; height: 400px; margin-bottom: 30px;"">
      <div style=""display: flex; justify-content: center; gap: 40px;"">
      <div style=""
        text-align: center;
        font-size: 24px;
        opacity: 0.3;
        border: 2px solid #999;
        border-radius: 8px;
        padding: 20px 15px;
        width: 60px;
        box-shadow: none;
      "">
        F<br>
      </div>
      <div style=""
        text-align: center;
        font-size: 24px;
        opacity: 0.3;
        border: 2px solid #999;
        border-radius: 8px;
        padding: 20px 15px;
        width: 60px;
        box-shadow: none;
      "">
        G<br>
      </div>
      <div style=""
        text-align: center;
        font-size: 24px;
        opacity: 1;
        border: 2px solid #000;
        border-radius: 8px;
        padding: 20px 15px;
        width: 60px;
        box-shadow: 0 0 10px #333;
      "">
        H<br>
      </div>
      <div style=""
        text-align: center;
        font-size: 24px;
        opacity: 1;
        border: 2px solid #000;
        border-radius: 8px;
        padding: 20px 15px;
        width: 60px;
        box-shadow: 0 0 10px #333;
      "">
        J<br>
      </div></div></div>","h","0","15","training","A3","f","g","h","j","{""A1"":0.93,""A2"":0.27,""A3"":0.73,""A4"":0.07}","1","[""A3"",""A4""]","[""j"",""h""]","7","false","1","0","0","6","0"
"","","","","","html-keyboard-response","54","2.1.0","781190","null","","
    <div style=""text-align: center;"">
      <img src=""static/images/feedback_1.jpg"" style=""width: 400px; height: 400px; margin-bottom: 30px;"">
      <div style=""display: flex; justify-content: center; gap: 40px;"">
      <div style=""
        text-align: center;
        font-size: 24px;
        opacity: 0.3;
        border: 2px solid #999;
        border-radius: 8px;
        padding: 20px 15px;
        width: 60px;
        box-shadow: none;
      "">
        F<br>
      </div>
      <div style=""
        text-align: center;
        font-size: 24px;
        opacity: 0.3;
        border: 2px solid #999;
        border-radius: 8px;
        padding: 20px 15px;
        width: 60px;
        box-shadow: none;
      "">
        G<br>
      </div>
      <div style=""
        text-align: center;
        font-size: 24px;
        opacity: 1;
        border: 2px solid #000;
        border-radius: 8px;
        padding: 20px 15px;
        width: 60px;
        box-shadow: 0 0 10px #333;
      "">
        H<br>
      </div>
      <div style=""
        text-align: center;
        font-size: 24px;
        opacity: 1;
        border: 2px solid #000;
        border-radius: 8px;
        padding: 20px 15px;
        width: 60px;
        box-shadow: 0 0 10px #333;
      "">
        J<br>
      </div></div></div>","null","","","","","","","","","","","","","","","","","","",""
"","","","","","html-keyboard-response","55","2.1.0","781692","null","","
    <div style=""text-align: center;"">
      <img src=""static/images/fix_cross.jpg"" style=""width: 400px; height: 400px; margin-bottom: 30px;"">
      <div style=""display: flex; justify-content: center; gap: 40px;"">
      <div style=""
        text-align: center;
        font-size: 24px;
        opacity: 0.3;
        border: 2px solid #999;
        border-radius: 8px;
        padding: 20px 15px;
        width: 60px;
        box-shadow: none;
      "">
        F<br>
      </div>
      <div style=""
        text-align: center;
        font-size: 24px;
        opacity: 0.3;
        border: 2px solid #999;
        border-radius: 8px;
        padding: 20px 15px;
        width: 60px;
        box-shadow: none;
      "">
        G<br>
      </div>
      <div style=""
        text-align: center;
        font-size: 24px;
        opacity: 1;
        border: 2px solid #000;
        border-radius: 8px;
        padding: 20px 15px;
        width: 60px;
        box-shadow: 0 0 10px #333;
      "">
        H<br>
      </div>
      <div style=""
        text-align: center;
        font-size: 24px;
        opacity: 1;
        border: 2px solid #000;
        border-radius: 8px;
        padding: 20px 15px;
        width: 60px;
        box-shadow: 0 0 10px #333;
      "">
        J<br>
      </div></div></div>","null","","","","","","","","","","","","","","","","","","",""
"","","","","","html-keyboard-response","56","2.1.0","782647","953","","
    <div style=""text-align: center;"">
      <img src=""static/images/7.jpg"" style=""width: 400px; height: 400px; margin-bottom: 30px;"">
      <div style=""display: flex; justify-content: center; gap: 40px;"">
      <div style=""
        text-align: center;
        font-size: 24px;
        opacity: 0.3;
        border: 2px solid #999;
        border-radius: 8px;
        padding: 20px 15px;
        width: 60px;
        box-shadow: none;
      "">
        F<br>
      </div>
      <div style=""
        text-align: center;
        font-size: 24px;
        opacity: 0.3;
        border: 2px solid #999;
        border-radius: 8px;
        padding: 20px 15px;
        width: 60px;
        box-shadow: none;
      "">
        G<br>
      </div>
      <div style=""
        text-align: center;
        font-size: 24px;
        opacity: 1;
        border: 2px solid #000;
        border-radius: 8px;
        padding: 20px 15px;
        width: 60px;
        box-shadow: 0 0 10px #333;
      "">
        H<br>
      </div>
      <div style=""
        text-align: center;
        font-size: 24px;
        opacity: 1;
        border: 2px solid #000;
        border-radius: 8px;
        padding: 20px 15px;
        width: 60px;
        box-shadow: 0 0 10px #333;
      "">
        J<br>
      </div></div></div>","h","0","16","training","A3","f","g","h","j","{""A1"":0.93,""A2"":0.27,""A3"":0.73,""A4"":0.07}","1","[""A3"",""A4""]","[""j"",""h""]","7","false","1","0","0","7","0"
"","","","","","html-keyboard-response","57","2.1.0","783648","null","","
    <div style=""text-align: center;"">
      <img src=""static/images/feedback_1.jpg"" style=""width: 400px; height: 400px; margin-bottom: 30px;"">
      <div style=""display: flex; justify-content: center; gap: 40px;"">
      <div style=""
        text-align: center;
        font-size: 24px;
        opacity: 0.3;
        border: 2px solid #999;
        border-radius: 8px;
        padding: 20px 15px;
        width: 60px;
        box-shadow: none;
      "">
        F<br>
      </div>
      <div style=""
        text-align: center;
        font-size: 24px;
        opacity: 0.3;
        border: 2px solid #999;
        border-radius: 8px;
        padding: 20px 15px;
        width: 60px;
        box-shadow: none;
      "">
        G<br>
      </div>
      <div style=""
        text-align: center;
        font-size: 24px;
        opacity: 1;
        border: 2px solid #000;
        border-radius: 8px;
        padding: 20px 15px;
        width: 60px;
        box-shadow: 0 0 10px #333;
      "">
        H<br>
      </div>
      <div style=""
        text-align: center;
        font-size: 24px;
        opacity: 1;
        border: 2px solid #000;
        border-radius: 8px;
        padding: 20px 15px;
        width: 60px;
        box-shadow: 0 0 10px #333;
      "">
        J<br>
      </div></div></div>","null","","","","","","","","","","","","","","","","","","",""
"","","","","","html-keyboard-response","58","2.1.0","784150","null","","
    <div style=""text-align: center;"">
      <img src=""static/images/fix_cross.jpg"" style=""width: 400px; height: 400px; margin-bottom: 30px;"">
      <div style=""display: flex; justify-content: center; gap: 40px;"">
      <div style=""
        text-align: center;
        font-size: 24px;
        opacity: 0.3;
        border: 2px solid #999;
        border-radius: 8px;
        padding: 20px 15px;
        width: 60px;
        box-shadow: none;
      "">
        F<br>
      </div>
      <div style=""
        text-align: center;
        font-size: 24px;
        opacity: 0.3;
        border: 2px solid #999;
        border-radius: 8px;
        padding: 20px 15px;
        width: 60px;
        box-shadow: none;
      "">
        G<br>
      </div>
      <div style=""
        text-align: center;
        font-size: 24px;
        opacity: 1;
        border: 2px solid #000;
        border-radius: 8px;
        padding: 20px 15px;
        width: 60px;
        box-shadow: 0 0 10px #333;
      "">
        H<br>
      </div>
      <div style=""
        text-align: center;
        font-size: 24px;
        opacity: 1;
        border: 2px solid #000;
        border-radius: 8px;
        padding: 20px 15px;
        width: 60px;
        box-shadow: 0 0 10px #333;
      "">
        J<br>
      </div></div></div>","null","","","","","","","","","","","","","","","","","","",""
"","","","","","html-keyboard-response","59","2.1.0","785758","1606","","
    <div style=""text-align: center;"">
      <img src=""static/images/7.jpg"" style=""width: 400px; height: 400px; margin-bottom: 30px;"">
      <div style=""display: flex; justify-content: center; gap: 40px;"">
      <div style=""
        text-align: center;
        font-size: 24px;
        opacity: 0.3;
        border: 2px solid #999;
        border-radius: 8px;
        padding: 20px 15px;
        width: 60px;
        box-shadow: none;
      "">
        F<br>
      </div>
      <div style=""
        text-align: center;
        font-size: 24px;
        opacity: 0.3;
        border: 2px solid #999;
        border-radius: 8px;
        padding: 20px 15px;
        width: 60px;
        box-shadow: none;
      "">
        G<br>
      </div>
      <div style=""
        text-align: center;
        font-size: 24px;
        opacity: 1;
        border: 2px solid #000;
        border-radius: 8px;
        padding: 20px 15px;
        width: 60px;
        box-shadow: 0 0 10px #333;
      "">
        H<br>
      </div>
      <div style=""
        text-align: center;
        font-size: 24px;
        opacity: 1;
        border: 2px solid #000;
        border-radius: 8px;
        padding: 20px 15px;
        width: 60px;
        box-shadow: 0 0 10px #333;
      "">
        J<br>
      </div></div></div>","h","0","17","training","A3","f","g","h","j","{""A1"":0.93,""A2"":0.27,""A3"":0.73,""A4"":0.07}","1","[""A3"",""A4""]","[""j"",""h""]","7","false","0","0","0","8","0"
"","","","","","html-keyboard-response","60","2.1.0","786760","null","","
    <div style=""text-align: center;"">
      <img src=""static/images/feedback_0.jpg"" style=""width: 400px; height: 400px; margin-bottom: 30px;"">
      <div style=""display: flex; justify-content: center; gap: 40px;"">
      <div style=""
        text-align: center;
        font-size: 24px;
        opacity: 0.3;
        border: 2px solid #999;
        border-radius: 8px;
        padding: 20px 15px;
        width: 60px;
        box-shadow: none;
      "">
        F<br>
      </div>
      <div style=""
        text-align: center;
        font-size: 24px;
        opacity: 0.3;
        border: 2px solid #999;
        border-radius: 8px;
        padding: 20px 15px;
        width: 60px;
        box-shadow: none;
      "">
        G<br>
      </div>
      <div style=""
        text-align: center;
        font-size: 24px;
        opacity: 1;
        border: 2px solid #000;
        border-radius: 8px;
        padding: 20px 15px;
        width: 60px;
        box-shadow: 0 0 10px #333;
      "">
        H<br>
      </div>
      <div style=""
        text-align: center;
        font-size: 24px;
        opacity: 1;
        border: 2px solid #000;
        border-radius: 8px;
        padding: 20px 15px;
        width: 60px;
        box-shadow: 0 0 10px #333;
      "">
        J<br>
      </div></div></div>","null","","","","","","","","","","","","","","","","","","",""
"","","","","","html-keyboard-response","61","2.1.0","787262","null","","
    <div style=""text-align: center;"">
      <img src=""static/images/fix_cross.jpg"" style=""width: 400px; height: 400px; margin-bottom: 30px;"">
      <div style=""display: flex; justify-content: center; gap: 40px;"">
      <div style=""
        text-align: center;
        font-size: 24px;
        opacity: 0.3;
        border: 2px solid #999;
        border-radius: 8px;
        padding: 20px 15px;
        width: 60px;
        box-shadow: none;
      "">
        F<br>
      </div>
      <div style=""
        text-align: center;
        font-size: 24px;
        opacity: 0.3;
        border: 2px solid #999;
        border-radius: 8px;
        padding: 20px 15px;
        width: 60px;
        box-shadow: none;
      "">
        G<br>
      </div>
      <div style=""
        text-align: center;
        font-size: 24px;
        opacity: 1;
        border: 2px solid #000;
        border-radius: 8px;
        padding: 20px 15px;
        width: 60px;
        box-shadow: 0 0 10px #333;
      "">
        H<br>
      </div>
      <div style=""
        text-align: center;
        font-size: 24px;
        opacity: 1;
        border: 2px solid #000;
        border-radius: 8px;
        padding: 20px 15px;
        width: 60px;
        box-shadow: 0 0 10px #333;
      "">
        J<br>
      </div></div></div>","null","","","","","","","","","","","","","","","","","","",""
"","","","","","html-keyboard-response","62","2.1.0","787802","538","","
    <div style=""text-align: center;"">
      <img src=""static/images/7.jpg"" style=""width: 400px; height: 400px; margin-bottom: 30px;"">
      <div style=""display: flex; justify-content: center; gap: 40px;"">
      <div style=""
        text-align: center;
        font-size: 24px;
        opacity: 0.3;
        border: 2px solid #999;
        border-radius: 8px;
        padding: 20px 15px;
        width: 60px;
        box-shadow: none;
      "">
        F<br>
      </div>
      <div style=""
        text-align: center;
        font-size: 24px;
        opacity: 0.3;
        border: 2px solid #999;
        border-radius: 8px;
        padding: 20px 15px;
        width: 60px;
        box-shadow: none;
      "">
        G<br>
      </div>
      <div style=""
        text-align: center;
        font-size: 24px;
        opacity: 1;
        border: 2px solid #000;
        border-radius: 8px;
        padding: 20px 15px;
        width: 60px;
        box-shadow: 0 0 10px #333;
      "">
        H<br>
      </div>
      <div style=""
        text-align: center;
        font-size: 24px;
        opacity: 1;
        border: 2px solid #000;
        border-radius: 8px;
        padding: 20px 15px;
        width: 60px;
        box-shadow: 0 0 10px #333;
      "">
        J<br>
      </div></div></div>","h","0","18","training","A3","f","g","h","j","{""A1"":0.93,""A2"":0.27,""A3"":0.73,""A4"":0.07}","1","[""A3"",""A4""]","[""j"",""h""]","7","false","1","0","0","9","0"
"","","","","","html-keyboard-response","63","2.1.0","788804","null","","
    <div style=""text-align: center;"">
      <img src=""static/images/feedback_1.jpg"" style=""width: 400px; height: 400px; margin-bottom: 30px;"">
      <div style=""display: flex; justify-content: center; gap: 40px;"">
      <div style=""
        text-align: center;
        font-size: 24px;
        opacity: 0.3;
        border: 2px solid #999;
        border-radius: 8px;
        padding: 20px 15px;
        width: 60px;
        box-shadow: none;
      "">
        F<br>
      </div>
      <div style=""
        text-align: center;
        font-size: 24px;
        opacity: 0.3;
        border: 2px solid #999;
        border-radius: 8px;
        padding: 20px 15px;
        width: 60px;
        box-shadow: none;
      "">
        G<br>
      </div>
      <div style=""
        text-align: center;
        font-size: 24px;
        opacity: 1;
        border: 2px solid #000;
        border-radius: 8px;
        padding: 20px 15px;
        width: 60px;
        box-shadow: 0 0 10px #333;
      "">
        H<br>
      </div>
      <div style=""
        text-align: center;
        font-size: 24px;
        opacity: 1;
        border: 2px solid #000;
        border-radius: 8px;
        padding: 20px 15px;
        width: 60px;
        box-shadow: 0 0 10px #333;
      "">
        J<br>
      </div></div></div>","null","","","","","","","","","","","","","","","","","","",""
"","","","","","html-keyboard-response","64","2.1.0","789307","null","","
    <div style=""text-align: center;"">
      <img src=""static/images/fix_cross.jpg"" style=""width: 400px; height: 400px; margin-bottom: 30px;"">
      <div style=""display: flex; justify-content: center; gap: 40px;"">
      <div style=""
        text-align: center;
        font-size: 24px;
        opacity: 0.3;
        border: 2px solid #999;
        border-radius: 8px;
        padding: 20px 15px;
        width: 60px;
        box-shadow: none;
      "">
        F<br>
      </div>
      <div style=""
        text-align: center;
        font-size: 24px;
        opacity: 0.3;
        border: 2px solid #999;
        border-radius: 8px;
        padding: 20px 15px;
        width: 60px;
        box-shadow: none;
      "">
        G<br>
      </div>
      <div style=""
        text-align: center;
        font-size: 24px;
        opacity: 1;
        border: 2px solid #000;
        border-radius: 8px;
        padding: 20px 15px;
        width: 60px;
        box-shadow: 0 0 10px #333;
      "">
        H<br>
      </div>
      <div style=""
        text-align: center;
        font-size: 24px;
        opacity: 1;
        border: 2px solid #000;
        border-radius: 8px;
        padding: 20px 15px;
        width: 60px;
        box-shadow: 0 0 10px #333;
      "">
        J<br>
      </div></div></div>","null","","","","","","","","","","","","","","","","","","",""
"","","","","","html-keyboard-response","65","2.1.0","790064","755","","
    <div style=""text-align: center;"">
      <img src=""static/images/12.jpg"" style=""width: 400px; height: 400px; margin-bottom: 30px;"">
      <div style=""display: flex; justify-content: center; gap: 40px;"">
      <div style=""
        text-align: center;
        font-size: 24px;
        opacity: 0.3;
        border: 2px solid #999;
        border-radius: 8px;
        padding: 20px 15px;
        width: 60px;
        box-shadow: none;
      "">
        F<br>
      </div>
      <div style=""
        text-align: center;
        font-size: 24px;
        opacity: 0.3;
        border: 2px solid #999;
        border-radius: 8px;
        padding: 20px 15px;
        width: 60px;
        box-shadow: none;
      "">
        G<br>
      </div>
      <div style=""
        text-align: center;
        font-size: 24px;
        opacity: 1;
        border: 2px solid #000;
        border-radius: 8px;
        padding: 20px 15px;
        width: 60px;
        box-shadow: 0 0 10px #333;
      "">
        H<br>
      </div>
      <div style=""
        text-align: center;
        font-size: 24px;
        opacity: 1;
        border: 2px solid #000;
        border-radius: 8px;
        padding: 20px 15px;
        width: 60px;
        box-shadow: 0 0 10px #333;
      "">
        J<br>
      </div></div></div>","j","0","19","training","A3","g","f","j","h","{""A1"":0.93,""A2"":0.27,""A3"":0.73,""A4"":0.07}","1","[""A3"",""A4""]","[""j"",""h""]","12","false","1","0","0","10","1"
"","","","","","html-keyboard-response","66","2.1.0","791066","null","","
    <div style=""text-align: center;"">
      <img src=""static/images/feedback_1.jpg"" style=""width: 400px; height: 400px; margin-bottom: 30px;"">
      <div style=""display: flex; justify-content: center; gap: 40px;"">
      <div style=""
        text-align: center;
        font-size: 24px;
        opacity: 0.3;
        border: 2px solid #999;
        border-radius: 8px;
        padding: 20px 15px;
        width: 60px;
        box-shadow: none;
      "">
        F<br>
      </div>
      <div style=""
        text-align: center;
        font-size: 24px;
        opacity: 0.3;
        border: 2px solid #999;
        border-radius: 8px;
        padding: 20px 15px;
        width: 60px;
        box-shadow: none;
      "">
        G<br>
      </div>
      <div style=""
        text-align: center;
        font-size: 24px;
        opacity: 1;
        border: 2px solid #000;
        border-radius: 8px;
        padding: 20px 15px;
        width: 60px;
        box-shadow: 0 0 10px #333;
      "">
        H<br>
      </div>
      <div style=""
        text-align: center;
        font-size: 24px;
        opacity: 1;
        border: 2px solid #000;
        border-radius: 8px;
        padding: 20px 15px;
        width: 60px;
        box-shadow: 0 0 10px #333;
      "">
        J<br>
      </div></div></div>","null","","","","","","","","","","","","","","","","","","",""
"","","","","","html-keyboard-response","67","2.1.0","791569","null","","
    <div style=""text-align: center;"">
      <img src=""static/images/fix_cross.jpg"" style=""width: 400px; height: 400px; margin-bottom: 30px;"">
      <div style=""display: flex; justify-content: center; gap: 40px;"">
      <div style=""
        text-align: center;
        font-size: 24px;
        opacity: 0.3;
        border: 2px solid #999;
        border-radius: 8px;
        padding: 20px 15px;
        width: 60px;
        box-shadow: none;
      "">
        F<br>
      </div>
      <div style=""
        text-align: center;
        font-size: 24px;
        opacity: 0.3;
        border: 2px solid #999;
        border-radius: 8px;
        padding: 20px 15px;
        width: 60px;
        box-shadow: none;
      "">
        G<br>
      </div>
      <div style=""
        text-align: center;
        font-size: 24px;
        opacity: 1;
        border: 2px solid #000;
        border-radius: 8px;
        padding: 20px 15px;
        width: 60px;
        box-shadow: 0 0 10px #333;
      "">
        H<br>
      </div>
      <div style=""
        text-align: center;
        font-size: 24px;
        opacity: 1;
        border: 2px solid #000;
        border-radius: 8px;
        padding: 20px 15px;
        width: 60px;
        box-shadow: 0 0 10px #333;
      "">
        J<br>
      </div></div></div>","null","","","","","","","","","","","","","","","","","","",""
"","","","","","html-keyboard-response","68","2.1.0","792250","680","","
    <div style=""text-align: center;"">
      <img src=""static/images/7.jpg"" style=""width: 400px; height: 400px; margin-bottom: 30px;"">
      <div style=""display: flex; justify-content: center; gap: 40px;"">
      <div style=""
        text-align: center;
        font-size: 24px;
        opacity: 0.3;
        border: 2px solid #999;
        border-radius: 8px;
        padding: 20px 15px;
        width: 60px;
        box-shadow: none;
      "">
        F<br>
      </div>
      <div style=""
        text-align: center;
        font-size: 24px;
        opacity: 0.3;
        border: 2px solid #999;
        border-radius: 8px;
        padding: 20px 15px;
        width: 60px;
        box-shadow: none;
      "">
        G<br>
      </div>
      <div style=""
        text-align: center;
        font-size: 24px;
        opacity: 1;
        border: 2px solid #000;
        border-radius: 8px;
        padding: 20px 15px;
        width: 60px;
        box-shadow: 0 0 10px #333;
      "">
        H<br>
      </div>
      <div style=""
        text-align: center;
        font-size: 24px;
        opacity: 1;
        border: 2px solid #000;
        border-radius: 8px;
        padding: 20px 15px;
        width: 60px;
        box-shadow: 0 0 10px #333;
      "">
        J<br>
      </div></div></div>","h","0","20","training","A3","f","g","h","j","{""A1"":0.93,""A2"":0.27,""A3"":0.73,""A4"":0.07}","1","[""A3"",""A4""]","[""j"",""h""]","7","false","1","0","0","10","0"
"","","","","","html-keyboard-response","69","2.1.0","793252","null","","
    <div style=""text-align: center;"">
      <img src=""static/images/feedback_1.jpg"" style=""width: 400px; height: 400px; margin-bottom: 30px;"">
      <div style=""display: flex; justify-content: center; gap: 40px;"">
      <div style=""
        text-align: center;
        font-size: 24px;
        opacity: 0.3;
        border: 2px solid #999;
        border-radius: 8px;
        padding: 20px 15px;
        width: 60px;
        box-shadow: none;
      "">
        F<br>
      </div>
      <div style=""
        text-align: center;
        font-size: 24px;
        opacity: 0.3;
        border: 2px solid #999;
        border-radius: 8px;
        padding: 20px 15px;
        width: 60px;
        box-shadow: none;
      "">
        G<br>
      </div>
      <div style=""
        text-align: center;
        font-size: 24px;
        opacity: 1;
        border: 2px solid #000;
        border-radius: 8px;
        padding: 20px 15px;
        width: 60px;
        box-shadow: 0 0 10px #333;
      "">
        H<br>
      </div>
      <div style=""
        text-align: center;
        font-size: 24px;
        opacity: 1;
        border: 2px solid #000;
        border-radius: 8px;
        padding: 20px 15px;
        width: 60px;
        box-shadow: 0 0 10px #333;
      "">
        J<br>
      </div></div></div>","null","","","","","","","","","","","","","","","","","","",""
"","","","","","html-keyboard-response","70","2.1.0","793755","null","","
    <div style=""text-align: center;"">
      <img src=""static/images/fix_cross.jpg"" style=""width: 400px; height: 400px; margin-bottom: 30px;"">
      <div style=""display: flex; justify-content: center; gap: 40px;"">
      <div style=""
        text-align: center;
        font-size: 24px;
        opacity: 0.3;
        border: 2px solid #999;
        border-radius: 8px;
        padding: 20px 15px;
        width: 60px;
        box-shadow: none;
      "">
        F<br>
      </div>
      <div style=""
        text-align: center;
        font-size: 24px;
