"success","timeout","failed_images","failed_audio","failed_video","trial_type","trial_index","plugin_version","time_elapsed","rt","view_history","stimulus","response","block","trial","phase","action","a1_key","a2_key","a3_key","a4_key","reward_probs","condition","subset","available_keys","image","attention_check","reward","a1_count","a2_count","a3_count","a4_count"
"true","false","[]","[]","[]","preload","0","2.1.0","849","","","","","","","","","","","","","","","","","","","","","","",""
"true","","","","","fullscreen","1","2.1.0","18304","17352","","","","","","","","","","","","","","","","","","","","","",""
"","","","","","instructions","2","2.1.0","96007","77702","[{""page_index"":0,""viewing_time"":9182},{""page_index"":1,""viewing_time"":17986},{""page_index"":2,""viewing_time"":9583},{""page_index"":3,""viewing_time"":11466},{""page_index"":4,""viewing_time"":8393},{""page_index"":5,""viewing_time"":9171},{""page_index"":6,""viewing_time"":11920}]","","","","","","","","","","","","","","","","","","","","",""
"","","","","","html-keyboard-response","3","2.1.0","99118","3109","","<div style=""text-align: center; font-size: 1.2em;""><h3>Block 1/6</h3>The following actions will be available:<br/><br/><div style=""display: flex; justify-content: center; gap: 40px;"">
      <div style=""
        text-align: center;
        font-size: 24px;
        opacity: 0.3;
        border: 2px solid #999;
        border-radius: 8px;
        padding: 20px 15px;
        width: 60px;
        box-shadow: none;
      "">
        F<br>
      </div>
      <div style=""
        text-align: center;
        font-size: 24px;
        opacity: 1;
        border: 2px solid #000;
        border-radius: 8px;
        padding: 20px 15px;
        width: 60px;
        box-shadow: 0 0 10px #333;
      "">
        G<br>
      </div>
      <div style=""
        text-align: center;
        font-size: 24px;
        opacity: 0.3;
        border: 2px solid #999;
        border-radius: 8px;
        padding: 20px 15px;
        width: 60px;
        box-shadow: none;
      "">
        H<br>
      </div>
      <div style=""
        text-align: center;
        font-size: 24px;
        opacity: 1;
        border: 2px solid #000;
        border-radius: 8px;
        padding: 20px 15px;
        width: 60px;
        box-shadow: 0 0 10px #333;
      "">
        J<br>
      </div></div></div></p></div><p class=""continue"" style=""text-align: center;""><br/>[Press SPACE to continue]</p>"," ","","","","","","","","","","","","","","","","","","",""
"","","","","","html-keyboard-response","4","2.1.0","99620","null","","
    <div style=""text-align: center;"">
      <img src=""static/images/fix_cross.jpg"" style=""width: 400px; height: 400px; margin-bottom: 30px;"">
      <div style=""display: flex; justify-content: center; gap: 40px;"">
      <div style=""
        text-align: center;
        font-size: 24px;
        opacity: 0.3;
        border: 2px solid #999;
        border-radius: 8px;
        padding: 20px 15px;
        width: 60px;
        box-shadow: none;
      "">
        F<br>
      </div>
      <div style=""
        text-align: center;
        font-size: 24px;
        opacity: 1;
        border: 2px solid #000;
        border-radius: 8px;
        padding: 20px 15px;
        width: 60px;
        box-shadow: 0 0 10px #333;
      "">
        G<br>
      </div>
      <div style=""
        text-align: center;
        font-size: 24px;
        opacity: 0.3;
        border: 2px solid #999;
        border-radius: 8px;
        padding: 20px 15px;
        width: 60px;
        box-shadow: none;
      "">
        H<br>
      </div>
      <div style=""
        text-align: center;
        font-size: 24px;
        opacity: 1;
        border: 2px solid #000;
        border-radius: 8px;
        padding: 20px 15px;
        width: 60px;
        box-shadow: 0 0 10px #333;
      "">
        J<br>
      </div></div></div>","null","","","","","","","","","","","","","","","","","","",""
"","","","","","html-keyboard-response","5","2.1.0","100141","519","","
    <div style=""text-align: center;"">
      <img src=""static/images/6.jpg"" style=""width: 400px; height: 400px; margin-bottom: 30px;"">
      <div style=""display: flex; justify-content: center; gap: 40px;"">
      <div style=""
        text-align: center;
        font-size: 24px;
        opacity: 0.3;
        border: 2px solid #999;
        border-radius: 8px;
        padding: 20px 15px;
        width: 60px;
        box-shadow: none;
      "">
        F<br>
      </div>
      <div style=""
        text-align: center;
        font-size: 24px;
        opacity: 1;
        border: 2px solid #000;
        border-radius: 8px;
        padding: 20px 15px;
        width: 60px;
        box-shadow: 0 0 10px #333;
      "">
        G<br>
      </div>
      <div style=""
        text-align: center;
        font-size: 24px;
        opacity: 0.3;
        border: 2px solid #999;
        border-radius: 8px;
        padding: 20px 15px;
        width: 60px;
        box-shadow: none;
      "">
        H<br>
      </div>
      <div style=""
        text-align: center;
        font-size: 24px;
        opacity: 1;
        border: 2px solid #000;
        border-radius: 8px;
        padding: 20px 15px;
        width: 60px;
        box-shadow: 0 0 10px #333;
      "">
        J<br>
      </div></div></div>","g","0","0","training","A4","f","h","j","g","{""A1"":0.93,""A2"":0.27,""A3"":0.73,""A4"":0.07}","1","[""A3"",""A4""]","[""j"",""g""]","6","false","0","0","0","0","1"
"","","","","","html-keyboard-response","6","2.1.0","101145","null","","
    <div style=""text-align: center;"">
      <img src=""static/images/feedback_0.jpg"" style=""width: 400px; height: 400px; margin-bottom: 30px;"">
      <div style=""display: flex; justify-content: center; gap: 40px;"">
      <div style=""
        text-align: center;
        font-size: 24px;
        opacity: 0.3;
        border: 2px solid #999;
        border-radius: 8px;
        padding: 20px 15px;
        width: 60px;
        box-shadow: none;
      "">
        F<br>
      </div>
      <div style=""
        text-align: center;
        font-size: 24px;
        opacity: 1;
        border: 2px solid #000;
        border-radius: 8px;
        padding: 20px 15px;
        width: 60px;
        box-shadow: 0 0 10px #333;
      "">
        G<br>
      </div>
      <div style=""
        text-align: center;
        font-size: 24px;
        opacity: 0.3;
        border: 2px solid #999;
        border-radius: 8px;
        padding: 20px 15px;
        width: 60px;
        box-shadow: none;
      "">
        H<br>
      </div>
      <div style=""
        text-align: center;
        font-size: 24px;
        opacity: 1;
        border: 2px solid #000;
        border-radius: 8px;
        padding: 20px 15px;
        width: 60px;
        box-shadow: 0 0 10px #333;
      "">
        J<br>
      </div></div></div>","null","","","","","","","","","","","","","","","","","","",""
"","","","","","html-keyboard-response","7","2.1.0","101649","null","","
    <div style=""text-align: center;"">
      <img src=""static/images/fix_cross.jpg"" style=""width: 400px; height: 400px; margin-bottom: 30px;"">
      <div style=""display: flex; justify-content: center; gap: 40px;"">
      <div style=""
        text-align: center;
        font-size: 24px;
        opacity: 0.3;
        border: 2px solid #999;
        border-radius: 8px;
        padding: 20px 15px;
        width: 60px;
        box-shadow: none;
      "">
        F<br>
      </div>
      <div style=""
        text-align: center;
        font-size: 24px;
        opacity: 1;
        border: 2px solid #000;
        border-radius: 8px;
        padding: 20px 15px;
        width: 60px;
        box-shadow: 0 0 10px #333;
      "">
        G<br>
      </div>
      <div style=""
        text-align: center;
        font-size: 24px;
        opacity: 0.3;
        border: 2px solid #999;
        border-radius: 8px;
        padding: 20px 15px;
        width: 60px;
        box-shadow: none;
      "">
        H<br>
      </div>
      <div style=""
        text-align: center;
        font-size: 24px;
        opacity: 1;
        border: 2px solid #000;
        border-radius: 8px;
        padding: 20px 15px;
        width: 60px;
        box-shadow: 0 0 10px #333;
      "">
        J<br>
      </div></div></div>","null","","","","","","","","","","","","","","","","","","",""
"","","","","","html-keyboard-response","8","2.1.0","102270","619","","
    <div style=""text-align: center;"">
      <img src=""static/images/6.jpg"" style=""width: 400px; height: 400px; margin-bottom: 30px;"">
      <div style=""display: flex; justify-content: center; gap: 40px;"">
      <div style=""
        text-align: center;
        font-size: 24px;
        opacity: 0.3;
        border: 2px solid #999;
        border-radius: 8px;
        padding: 20px 15px;
        width: 60px;
        box-shadow: none;
      "">
        F<br>
      </div>
      <div style=""
        text-align: center;
        font-size: 24px;
        opacity: 1;
        border: 2px solid #000;
        border-radius: 8px;
        padding: 20px 15px;
        width: 60px;
        box-shadow: 0 0 10px #333;
      "">
        G<br>
      </div>
      <div style=""
        text-align: center;
        font-size: 24px;
        opacity: 0.3;
        border: 2px solid #999;
        border-radius: 8px;
        padding: 20px 15px;
        width: 60px;
        box-shadow: none;
      "">
        H<br>
      </div>
      <div style=""
        text-align: center;
        font-size: 24px;
        opacity: 1;
        border: 2px solid #000;
        border-radius: 8px;
        padding: 20px 15px;
        width: 60px;
        box-shadow: 0 0 10px #333;
      "">
        J<br>
      </div></div></div>","j","0","1","training","A3","f","h","j","g","{""A1"":0.93,""A2"":0.27,""A3"":0.73,""A4"":0.07}","1","[""A3"",""A4""]","[""j"",""g""]","6","false","1","0","0","1","1"
"","","","","","html-keyboard-response","9","2.1.0","103272","null","","
    <div style=""text-align: center;"">
      <img src=""static/images/feedback_1.jpg"" style=""width: 400px; height: 400px; margin-bottom: 30px;"">
      <div style=""display: flex; justify-content: center; gap: 40px;"">
      <div style=""
        text-align: center;
        font-size: 24px;
        opacity: 0.3;
        border: 2px solid #999;
        border-radius: 8px;
        padding: 20px 15px;
        width: 60px;
        box-shadow: none;
      "">
        F<br>
      </div>
      <div style=""
        text-align: center;
        font-size: 24px;
        opacity: 1;
        border: 2px solid #000;
        border-radius: 8px;
        padding: 20px 15px;
        width: 60px;
        box-shadow: 0 0 10px #333;
      "">
        G<br>
      </div>
      <div style=""
        text-align: center;
        font-size: 24px;
        opacity: 0.3;
        border: 2px solid #999;
        border-radius: 8px;
        padding: 20px 15px;
        width: 60px;
        box-shadow: none;
      "">
        H<br>
      </div>
      <div style=""
        text-align: center;
        font-size: 24px;
        opacity: 1;
        border: 2px solid #000;
        border-radius: 8px;
        padding: 20px 15px;
        width: 60px;
        box-shadow: 0 0 10px #333;
      "">
        J<br>
      </div></div></div>","null","","","","","","","","","","","","","","","","","","",""
"","","","","","html-keyboard-response","10","2.1.0","103776","null","","
    <div style=""text-align: center;"">
      <img src=""static/images/fix_cross.jpg"" style=""width: 400px; height: 400px; margin-bottom: 30px;"">
      <div style=""display: flex; justify-content: center; gap: 40px;"">
      <div style=""
        text-align: center;
        font-size: 24px;
        opacity: 0.3;
        border: 2px solid #999;
        border-radius: 8px;
        padding: 20px 15px;
        width: 60px;
        box-shadow: none;
      "">
        F<br>
      </div>
      <div style=""
        text-align: center;
        font-size: 24px;
        opacity: 1;
        border: 2px solid #000;
        border-radius: 8px;
        padding: 20px 15px;
        width: 60px;
        box-shadow: 0 0 10px #333;
      "">
        G<br>
      </div>
      <div style=""
        text-align: center;
        font-size: 24px;
        opacity: 0.3;
        border: 2px solid #999;
        border-radius: 8px;
        padding: 20px 15px;
        width: 60px;
        box-shadow: none;
      "">
        H<br>
      </div>
      <div style=""
        text-align: center;
        font-size: 24px;
        opacity: 1;
        border: 2px solid #000;
        border-radius: 8px;
        padding: 20px 15px;
        width: 60px;
        box-shadow: 0 0 10px #333;
      "">
        J<br>
      </div></div></div>","null","","","","","","","","","","","","","","","","","","",""
"","","","","","html-keyboard-response","11","2.1.0","104274","497","","
    <div style=""text-align: center;"">
      <img src=""static/images/6.jpg"" style=""width: 400px; height: 400px; margin-bottom: 30px;"">
      <div style=""display: flex; justify-content: center; gap: 40px;"">
      <div style=""
        text-align: center;
        font-size: 24px;
        opacity: 0.3;
        border: 2px solid #999;
        border-radius: 8px;
        padding: 20px 15px;
        width: 60px;
        box-shadow: none;
      "">
        F<br>
      </div>
      <div style=""
        text-align: center;
        font-size: 24px;
        opacity: 1;
        border: 2px solid #000;
        border-radius: 8px;
        padding: 20px 15px;
        width: 60px;
        box-shadow: 0 0 10px #333;
      "">
        G<br>
      </div>
      <div style=""
        text-align: center;
        font-size: 24px;
        opacity: 0.3;
        border: 2px solid #999;
        border-radius: 8px;
        padding: 20px 15px;
        width: 60px;
        box-shadow: none;
      "">
        H<br>
      </div>
      <div style=""
        text-align: center;
        font-size: 24px;
        opacity: 1;
        border: 2px solid #000;
        border-radius: 8px;
        padding: 20px 15px;
        width: 60px;
        box-shadow: 0 0 10px #333;
      "">
        J<br>
      </div></div></div>","j","0","2","training","A3","f","h","j","g","{""A1"":0.93,""A2"":0.27,""A3"":0.73,""A4"":0.07}","1","[""A3"",""A4""]","[""j"",""g""]","6","false","1","0","0","2","1"
"","","","","","html-keyboard-response","12","2.1.0","105278","null","","
    <div style=""text-align: center;"">
      <img src=""static/images/feedback_1.jpg"" style=""width: 400px; height: 400px; margin-bottom: 30px;"">
      <div style=""display: flex; justify-content: center; gap: 40px;"">
      <div style=""
        text-align: center;
        font-size: 24px;
        opacity: 0.3;
        border: 2px solid #999;
        border-radius: 8px;
        padding: 20px 15px;
        width: 60px;
        box-shadow: none;
      "">
        F<br>
      </div>
      <div style=""
        text-align: center;
        font-size: 24px;
        opacity: 1;
        border: 2px solid #000;
        border-radius: 8px;
        padding: 20px 15px;
        width: 60px;
        box-shadow: 0 0 10px #333;
      "">
        G<br>
      </div>
      <div style=""
        text-align: center;
        font-size: 24px;
        opacity: 0.3;
        border: 2px solid #999;
        border-radius: 8px;
        padding: 20px 15px;
        width: 60px;
        box-shadow: none;
      "">
        H<br>
      </div>
      <div style=""
        text-align: center;
        font-size: 24px;
        opacity: 1;
        border: 2px solid #000;
        border-radius: 8px;
        padding: 20px 15px;
        width: 60px;
        box-shadow: 0 0 10px #333;
      "">
        J<br>
      </div></div></div>","null","","","","","","","","","","","","","","","","","","",""
"","","","","","html-keyboard-response","13","2.1.0","105781","null","","
    <div style=""text-align: center;"">
      <img src=""static/images/fix_cross.jpg"" style=""width: 400px; height: 400px; margin-bottom: 30px;"">
      <div style=""display: flex; justify-content: center; gap: 40px;"">
      <div style=""
        text-align: center;
        font-size: 24px;
        opacity: 0.3;
        border: 2px solid #999;
        border-radius: 8px;
        padding: 20px 15px;
        width: 60px;
        box-shadow: none;
      "">
        F<br>
      </div>
      <div style=""
        text-align: center;
        font-size: 24px;
        opacity: 1;
        border: 2px solid #000;
        border-radius: 8px;
        padding: 20px 15px;
        width: 60px;
        box-shadow: 0 0 10px #333;
      "">
        G<br>
      </div>
      <div style=""
        text-align: center;
        font-size: 24px;
        opacity: 0.3;
        border: 2px solid #999;
        border-radius: 8px;
        padding: 20px 15px;
        width: 60px;
        box-shadow: none;
      "">
        H<br>
      </div>
      <div style=""
        text-align: center;
        font-size: 24px;
        opacity: 1;
        border: 2px solid #000;
        border-radius: 8px;
        padding: 20px 15px;
        width: 60px;
        box-shadow: 0 0 10px #333;
      "">
        J<br>
      </div></div></div>","null","","","","","","","","","","","","","","","","","","",""
"","","","","","html-keyboard-response","14","2.1.0","106176","394","","
    <div style=""text-align: center;"">
      <img src=""static/images/6.jpg"" style=""width: 400px; height: 400px; margin-bottom: 30px;"">
      <div style=""display: flex; justify-content: center; gap: 40px;"">
      <div style=""
        text-align: center;
        font-size: 24px;
        opacity: 0.3;
        border: 2px solid #999;
        border-radius: 8px;
        padding: 20px 15px;
        width: 60px;
        box-shadow: none;
      "">
        F<br>
      </div>
      <div style=""
        text-align: center;
        font-size: 24px;
        opacity: 1;
        border: 2px solid #000;
        border-radius: 8px;
        padding: 20px 15px;
        width: 60px;
        box-shadow: 0 0 10px #333;
      "">
        G<br>
      </div>
      <div style=""
        text-align: center;
        font-size: 24px;
        opacity: 0.3;
        border: 2px solid #999;
        border-radius: 8px;
        padding: 20px 15px;
        width: 60px;
        box-shadow: none;
      "">
        H<br>
      </div>
      <div style=""
        text-align: center;
        font-size: 24px;
        opacity: 1;
        border: 2px solid #000;
        border-radius: 8px;
        padding: 20px 15px;
        width: 60px;
        box-shadow: 0 0 10px #333;
      "">
        J<br>
      </div></div></div>","j","0","3","training","A3","f","h","j","g","{""A1"":0.93,""A2"":0.27,""A3"":0.73,""A4"":0.07}","1","[""A3"",""A4""]","[""j"",""g""]","6","false","1","0","0","3","1"
"","","","","","html-keyboard-response","15","2.1.0","107178","null","","
    <div style=""text-align: center;"">
      <img src=""static/images/feedback_1.jpg"" style=""width: 400px; height: 400px; margin-bottom: 30px;"">
      <div style=""display: flex; justify-content: center; gap: 40px;"">
      <div style=""
        text-align: center;
        font-size: 24px;
        opacity: 0.3;
        border: 2px solid #999;
        border-radius: 8px;
        padding: 20px 15px;
        width: 60px;
        box-shadow: none;
      "">
        F<br>
      </div>
      <div style=""
        text-align: center;
        font-size: 24px;
        opacity: 1;
        border: 2px solid #000;
        border-radius: 8px;
        padding: 20px 15px;
        width: 60px;
        box-shadow: 0 0 10px #333;
      "">
        G<br>
      </div>
      <div style=""
        text-align: center;
        font-size: 24px;
        opacity: 0.3;
        border: 2px solid #999;
        border-radius: 8px;
        padding: 20px 15px;
        width: 60px;
        box-shadow: none;
      "">
        H<br>
      </div>
      <div style=""
        text-align: center;
        font-size: 24px;
        opacity: 1;
        border: 2px solid #000;
        border-radius: 8px;
        padding: 20px 15px;
        width: 60px;
        box-shadow: 0 0 10px #333;
      "">
        J<br>
      </div></div></div>","null","","","","","","","","","","","","","","","","","","",""
"","","","","","html-keyboard-response","16","2.1.0","107682","null","","
    <div style=""text-align: center;"">
      <img src=""static/images/fix_cross.jpg"" style=""width: 400px; height: 400px; margin-bottom: 30px;"">
      <div style=""display: flex; justify-content: center; gap: 40px;"">
      <div style=""
        text-align: center;
        font-size: 24px;
        opacity: 0.3;
        border: 2px solid #999;
        border-radius: 8px;
        padding: 20px 15px;
        width: 60px;
        box-shadow: none;
      "">
        F<br>
      </div>
      <div style=""
        text-align: center;
        font-size: 24px;
        opacity: 1;
        border: 2px solid #000;
        border-radius: 8px;
        padding: 20px 15px;
        width: 60px;
        box-shadow: 0 0 10px #333;
      "">
        G<br>
      </div>
      <div style=""
        text-align: center;
        font-size: 24px;
        opacity: 0.3;
        border: 2px solid #999;
        border-radius: 8px;
        padding: 20px 15px;
        width: 60px;
        box-shadow: none;
      "">
        H<br>
      </div>
      <div style=""
        text-align: center;
        font-size: 24px;
        opacity: 1;
        border: 2px solid #000;
        border-radius: 8px;
        padding: 20px 15px;
        width: 60px;
        box-shadow: 0 0 10px #333;
      "">
        J<br>
      </div></div></div>","null","","","","","","","","","","","","","","","","","","",""
"","","","","","html-keyboard-response","17","2.1.0","109620","1937","","
    <div style=""text-align: center;"">
      <img src=""static/images/j.jpg"" style=""width: 400px; height: 400px; margin-bottom: 30px;"">
      <div style=""display: flex; justify-content: center; gap: 40px;"">
      <div style=""
        text-align: center;
        font-size: 24px;
        opacity: 0.3;
        border: 2px solid #999;
        border-radius: 8px;
        padding: 20px 15px;
        width: 60px;
        box-shadow: none;
      "">
        F<br>
      </div>
      <div style=""
        text-align: center;
        font-size: 24px;
        opacity: 1;
        border: 2px solid #000;
        border-radius: 8px;
        padding: 20px 15px;
        width: 60px;
        box-shadow: 0 0 10px #333;
      "">
        G<br>
      </div>
      <div style=""
        text-align: center;
        font-size: 24px;
        opacity: 0.3;
        border: 2px solid #999;
        border-radius: 8px;
        padding: 20px 15px;
        width: 60px;
        box-shadow: none;
      "">
        H<br>
      </div>
      <div style=""
        text-align: center;
        font-size: 24px;
        opacity: 1;
        border: 2px solid #000;
        border-radius: 8px;
        padding: 20px 15px;
        width: 60px;
        box-shadow: 0 0 10px #333;
      "">
        J<br>
      </div></div></div>","j","0","4","training","A4","h","f","g","j","{""A1"":0.93,""A2"":0.27,""A3"":0.73,""A4"":0.07}","1","[""A3"",""A4""]","[""j"",""g""]","j","true","1","","","",""
"","","","","","html-keyboard-response","18","2.1.0","110623","null","","<p style='color:green; font-size: 48px;'>Correct!</p>","null","","","","","","","","","","","","","","","","","","",""
"","","","","","html-keyboard-response","19","2.1.0","111126","null","","
    <div style=""text-align: center;"">
      <img src=""static/images/fix_cross.jpg"" style=""width: 400px; height: 400px; margin-bottom: 30px;"">
      <div style=""display: flex; justify-content: center; gap: 40px;"">
      <div style=""
        text-align: center;
        font-size: 24px;
        opacity: 0.3;
        border: 2px solid #999;
        border-radius: 8px;
        padding: 20px 15px;
        width: 60px;
        box-shadow: none;
      "">
        F<br>
      </div>
      <div style=""
        text-align: center;
        font-size: 24px;
        opacity: 1;
        border: 2px solid #000;
        border-radius: 8px;
        padding: 20px 15px;
        width: 60px;
        box-shadow: 0 0 10px #333;
      "">
        G<br>
      </div>
      <div style=""
        text-align: center;
        font-size: 24px;
        opacity: 0.3;
        border: 2px solid #999;
        border-radius: 8px;
        padding: 20px 15px;
        width: 60px;
        box-shadow: none;
      "">
        H<br>
      </div>
      <div style=""
        text-align: center;
        font-size: 24px;
        opacity: 1;
        border: 2px solid #000;
        border-radius: 8px;
        padding: 20px 15px;
        width: 60px;
        box-shadow: 0 0 10px #333;
      "">
        J<br>
      </div></div></div>","null","","","","","","","","","","","","","","","","","","",""
"","","","","","html-keyboard-response","20","2.1.0","112334","1207","","
    <div style=""text-align: center;"">
      <img src=""static/images/1.jpg"" style=""width: 400px; height: 400px; margin-bottom: 30px;"">
      <div style=""display: flex; justify-content: center; gap: 40px;"">
      <div style=""
        text-align: center;
        font-size: 24px;
        opacity: 0.3;
        border: 2px solid #999;
        border-radius: 8px;
        padding: 20px 15px;
        width: 60px;
        box-shadow: none;
      "">
        F<br>
      </div>
      <div style=""
        text-align: center;
        font-size: 24px;
        opacity: 1;
        border: 2px solid #000;
        border-radius: 8px;
        padding: 20px 15px;
        width: 60px;
        box-shadow: 0 0 10px #333;
      "">
        G<br>
      </div>
      <div style=""
        text-align: center;
        font-size: 24px;
        opacity: 0.3;
        border: 2px solid #999;
        border-radius: 8px;
        padding: 20px 15px;
        width: 60px;
        box-shadow: none;
      "">
        H<br>
      </div>
      <div style=""
        text-align: center;
        font-size: 24px;
        opacity: 1;
        border: 2px solid #000;
        border-radius: 8px;
        padding: 20px 15px;
        width: 60px;
        box-shadow: 0 0 10px #333;
      "">
        J<br>
      </div></div></div>","g","0","4","training","A3","h","f","g","j","{""A1"":0.93,""A2"":0.27,""A3"":0.73,""A4"":0.07}","1","[""A3"",""A4""]","[""j"",""g""]","1","false","0","0","0","1","0"
"","","","","","html-keyboard-response","21","2.1.0","113338","null","","
    <div style=""text-align: center;"">
      <img src=""static/images/feedback_0.jpg"" style=""width: 400px; height: 400px; margin-bottom: 30px;"">
      <div style=""display: flex; justify-content: center; gap: 40px;"">
      <div style=""
        text-align: center;
        font-size: 24px;
        opacity: 0.3;
        border: 2px solid #999;
        border-radius: 8px;
        padding: 20px 15px;
        width: 60px;
        box-shadow: none;
      "">
        F<br>
      </div>
      <div style=""
        text-align: center;
        font-size: 24px;
        opacity: 1;
        border: 2px solid #000;
        border-radius: 8px;
        padding: 20px 15px;
        width: 60px;
        box-shadow: 0 0 10px #333;
      "">
        G<br>
      </div>
      <div style=""
        text-align: center;
        font-size: 24px;
        opacity: 0.3;
        border: 2px solid #999;
        border-radius: 8px;
        padding: 20px 15px;
        width: 60px;
        box-shadow: none;
      "">
        H<br>
      </div>
      <div style=""
        text-align: center;
        font-size: 24px;
        opacity: 1;
        border: 2px solid #000;
        border-radius: 8px;
        padding: 20px 15px;
        width: 60px;
        box-shadow: 0 0 10px #333;
      "">
        J<br>
      </div></div></div>","null","","","","","","","","","","","","","","","","","","",""
"","","","","","html-keyboard-response","22","2.1.0","113841","null","","
    <div style=""text-align: center;"">
      <img src=""static/images/fix_cross.jpg"" style=""width: 400px; height: 400px; margin-bottom: 30px;"">
      <div style=""display: flex; justify-content: center; gap: 40px;"">
      <div style=""
        text-align: center;
        font-size: 24px;
        opacity: 0.3;
        border: 2px solid #999;
        border-radius: 8px;
        padding: 20px 15px;
        width: 60px;
        box-shadow: none;
      "">
        F<br>
      </div>
      <div style=""
        text-align: center;
        font-size: 24px;
        opacity: 1;
        border: 2px solid #000;
        border-radius: 8px;
        padding: 20px 15px;
        width: 60px;
        box-shadow: 0 0 10px #333;
      "">
        G<br>
      </div>
      <div style=""
        text-align: center;
        font-size: 24px;
        opacity: 0.3;
        border: 2px solid #999;
        border-radius: 8px;
        padding: 20px 15px;
        width: 60px;
        box-shadow: none;
      "">
        H<br>
      </div>
      <div style=""
        text-align: center;
        font-size: 24px;
        opacity: 1;
        border: 2px solid #000;
        border-radius: 8px;
        padding: 20px 15px;
        width: 60px;
        box-shadow: 0 0 10px #333;
      "">
        J<br>
      </div></div></div>","null","","","","","","","","","","","","","","","","","","",""
"","","","","","html-keyboard-response","23","2.1.0","114109","267","","
    <div style=""text-align: center;"">
      <img src=""static/images/6.jpg"" style=""width: 400px; height: 400px; margin-bottom: 30px;"">
      <div style=""display: flex; justify-content: center; gap: 40px;"">
      <div style=""
        text-align: center;
        font-size: 24px;
        opacity: 0.3;
        border: 2px solid #999;
        border-radius: 8px;
        padding: 20px 15px;
        width: 60px;
        box-shadow: none;
      "">
        F<br>
      </div>
      <div style=""
        text-align: center;
        font-size: 24px;
        opacity: 1;
        border: 2px solid #000;
        border-radius: 8px;
        padding: 20px 15px;
        width: 60px;
        box-shadow: 0 0 10px #333;
      "">
        G<br>
      </div>
      <div style=""
        text-align: center;
        font-size: 24px;
        opacity: 0.3;
        border: 2px solid #999;
        border-radius: 8px;
        padding: 20px 15px;
        width: 60px;
        box-shadow: none;
      "">
        H<br>
      </div>
      <div style=""
        text-align: center;
        font-size: 24px;
        opacity: 1;
        border: 2px solid #000;
        border-radius: 8px;
        padding: 20px 15px;
        width: 60px;
        box-shadow: 0 0 10px #333;
      "">
        J<br>
      </div></div></div>","j","0","5","training","A3","f","h","j","g","{""A1"":0.93,""A2"":0.27,""A3"":0.73,""A4"":0.07}","1","[""A3"",""A4""]","[""j"",""g""]","6","false","1","0","0","4","1"
"","","","","","html-keyboard-response","24","2.1.0","115112","null","","
    <div style=""text-align: center;"">
      <img src=""static/images/feedback_1.jpg"" style=""width: 400px; height: 400px; margin-bottom: 30px;"">
      <div style=""display: flex; justify-content: center; gap: 40px;"">
      <div style=""
        text-align: center;
        font-size: 24px;
        opacity: 0.3;
        border: 2px solid #999;
        border-radius: 8px;
        padding: 20px 15px;
        width: 60px;
        box-shadow: none;
      "">
        F<br>
      </div>
      <div style=""
        text-align: center;
        font-size: 24px;
        opacity: 1;
        border: 2px solid #000;
        border-radius: 8px;
        padding: 20px 15px;
        width: 60px;
        box-shadow: 0 0 10px #333;
      "">
        G<br>
      </div>
      <div style=""
        text-align: center;
        font-size: 24px;
        opacity: 0.3;
        border: 2px solid #999;
        border-radius: 8px;
        padding: 20px 15px;
        width: 60px;
        box-shadow: none;
      "">
        H<br>
      </div>
      <div style=""
        text-align: center;
        font-size: 24px;
        opacity: 1;
        border: 2px solid #000;
        border-radius: 8px;
        padding: 20px 15px;
        width: 60px;
        box-shadow: 0 0 10px #333;
      "">
        J<br>
      </div></div></div>","null","","","","","","","","","","","","","","","","","","",""
"","","","","","html-keyboard-response","25","2.1.0","115615","null","","
    <div style=""text-align: center;"">
      <img src=""static/images/fix_cross.jpg"" style=""width: 400px; height: 400px; margin-bottom: 30px;"">
      <div style=""display: flex; justify-content: center; gap: 40px;"">
      <div style=""
        text-align: center;
        font-size: 24px;
        opacity: 0.3;
        border: 2px solid #999;
        border-radius: 8px;
        padding: 20px 15px;
        width: 60px;
        box-shadow: none;
      "">
        F<br>
      </div>
      <div style=""
        text-align: center;
        font-size: 24px;
        opacity: 1;
        border: 2px solid #000;
        border-radius: 8px;
        padding: 20px 15px;
        width: 60px;
        box-shadow: 0 0 10px #333;
      "">
        G<br>
      </div>
      <div style=""
        text-align: center;
        font-size: 24px;
        opacity: 0.3;
        border: 2px solid #999;
        border-radius: 8px;
        padding: 20px 15px;
        width: 60px;
        box-shadow: none;
      "">
        H<br>
      </div>
      <div style=""
        text-align: center;
        font-size: 24px;
        opacity: 1;
        border: 2px solid #000;
        border-radius: 8px;
        padding: 20px 15px;
        width: 60px;
        box-shadow: 0 0 10px #333;
      "">
        J<br>
      </div></div></div>","null","","","","","","","","","","","","","","","","","","",""
"","","","","","html-keyboard-response","26","2.1.0","115882","266","","
    <div style=""text-align: center;"">
      <img src=""static/images/1.jpg"" style=""width: 400px; height: 400px; margin-bottom: 30px;"">
      <div style=""display: flex; justify-content: center; gap: 40px;"">
      <div style=""
        text-align: center;
        font-size: 24px;
        opacity: 0.3;
        border: 2px solid #999;
        border-radius: 8px;
        padding: 20px 15px;
        width: 60px;
        box-shadow: none;
      "">
        F<br>
      </div>
      <div style=""
        text-align: center;
        font-size: 24px;
        opacity: 1;
        border: 2px solid #000;
        border-radius: 8px;
        padding: 20px 15px;
        width: 60px;
        box-shadow: 0 0 10px #333;
      "">
        G<br>
      </div>
      <div style=""
        text-align: center;
        font-size: 24px;
        opacity: 0.3;
        border: 2px solid #999;
        border-radius: 8px;
        padding: 20px 15px;
        width: 60px;
        box-shadow: none;
      "">
        H<br>
      </div>
      <div style=""
        text-align: center;
        font-size: 24px;
        opacity: 1;
        border: 2px solid #000;
        border-radius: 8px;
        padding: 20px 15px;
        width: 60px;
        box-shadow: 0 0 10px #333;
      "">
        J<br>
      </div></div></div>","j","0","6","training","A4","h","f","g","j","{""A1"":0.93,""A2"":0.27,""A3"":0.73,""A4"":0.07}","1","[""A3"",""A4""]","[""j"",""g""]","1","false","0","0","0","1","1"
"","","","","","html-keyboard-response","27","2.1.0","116885","null","","
    <div style=""text-align: center;"">
      <img src=""static/images/feedback_0.jpg"" style=""width: 400px; height: 400px; margin-bottom: 30px;"">
      <div style=""display: flex; justify-content: center; gap: 40px;"">
      <div style=""
        text-align: center;
        font-size: 24px;
        opacity: 0.3;
        border: 2px solid #999;
        border-radius: 8px;
        padding: 20px 15px;
        width: 60px;
        box-shadow: none;
      "">
        F<br>
      </div>
      <div style=""
        text-align: center;
        font-size: 24px;
        opacity: 1;
        border: 2px solid #000;
        border-radius: 8px;
        padding: 20px 15px;
        width: 60px;
        box-shadow: 0 0 10px #333;
      "">
        G<br>
      </div>
      <div style=""
        text-align: center;
        font-size: 24px;
        opacity: 0.3;
        border: 2px solid #999;
        border-radius: 8px;
        padding: 20px 15px;
        width: 60px;
        box-shadow: none;
      "">
        H<br>
      </div>
      <div style=""
        text-align: center;
        font-size: 24px;
        opacity: 1;
        border: 2px solid #000;
        border-radius: 8px;
        padding: 20px 15px;
        width: 60px;
        box-shadow: 0 0 10px #333;
      "">
        J<br>
      </div></div></div>","null","","","","","","","","","","","","","","","","","","",""
"","","","","","html-keyboard-response","28","2.1.0","117389","null","","
    <div style=""text-align: center;"">
      <img src=""static/images/fix_cross.jpg"" style=""width: 400px; height: 400px; margin-bottom: 30px;"">
      <div style=""display: flex; justify-content: center; gap: 40px;"">
      <div style=""
        text-align: center;
        font-size: 24px;
        opacity: 0.3;
        border: 2px solid #999;
        border-radius: 8px;
        padding: 20px 15px;
        width: 60px;
        box-shadow: none;
      "">
        F<br>
      </div>
      <div style=""
        text-align: center;
        font-size: 24px;
        opacity: 1;
        border: 2px solid #000;
        border-radius: 8px;
        padding: 20px 15px;
        width: 60px;
        box-shadow: 0 0 10px #333;
      "">
        G<br>
      </div>
      <div style=""
        text-align: center;
        font-size: 24px;
        opacity: 0.3;
        border: 2px solid #999;
        border-radius: 8px;
        padding: 20px 15px;
        width: 60px;
        box-shadow: none;
      "">
        H<br>
      </div>
      <div style=""
        text-align: center;
        font-size: 24px;
        opacity: 1;
        border: 2px solid #000;
        border-radius: 8px;
        padding: 20px 15px;
        width: 60px;
        box-shadow: 0 0 10px #333;
      "">
        J<br>
      </div></div></div>","null","","","","","","","","","","","","","","","","","","",""
"","","","","","html-keyboard-response","29","2.1.0","117797","407","","
    <div style=""text-align: center;"">
      <img src=""static/images/1.jpg"" style=""width: 400px; height: 400px; margin-bottom: 30px;"">
      <div style=""display: flex; justify-content: center; gap: 40px;"">
      <div style=""
        text-align: center;
        font-size: 24px;
        opacity: 0.3;
        border: 2px solid #999;
        border-radius: 8px;
        padding: 20px 15px;
        width: 60px;
        box-shadow: none;
      "">
        F<br>
      </div>
      <div style=""
        text-align: center;
        font-size: 24px;
        opacity: 1;
        border: 2px solid #000;
        border-radius: 8px;
        padding: 20px 15px;
        width: 60px;
        box-shadow: 0 0 10px #333;
      "">
        G<br>
      </div>
      <div style=""
        text-align: center;
        font-size: 24px;
        opacity: 0.3;
        border: 2px solid #999;
        border-radius: 8px;
        padding: 20px 15px;
        width: 60px;
        box-shadow: none;
      "">
        H<br>
      </div>
      <div style=""
        text-align: center;
        font-size: 24px;
        opacity: 1;
        border: 2px solid #000;
        border-radius: 8px;
        padding: 20px 15px;
        width: 60px;
        box-shadow: 0 0 10px #333;
      "">
        J<br>
      </div></div></div>","g","0","7","training","A3","h","f","g","j","{""A1"":0.93,""A2"":0.27,""A3"":0.73,""A4"":0.07}","1","[""A3"",""A4""]","[""j"",""g""]","1","false","1","0","0","2","1"
"","","","","","html-keyboard-response","30","2.1.0","118800","null","","
    <div style=""text-align: center;"">
      <img src=""static/images/feedback_1.jpg"" style=""width: 400px; height: 400px; margin-bottom: 30px;"">
      <div style=""display: flex; justify-content: center; gap: 40px;"">
      <div style=""
        text-align: center;
        font-size: 24px;
        opacity: 0.3;
        border: 2px solid #999;
        border-radius: 8px;
        padding: 20px 15px;
        width: 60px;
        box-shadow: none;
      "">
        F<br>
      </div>
      <div style=""
        text-align: center;
        font-size: 24px;
        opacity: 1;
        border: 2px solid #000;
        border-radius: 8px;
        padding: 20px 15px;
        width: 60px;
        box-shadow: 0 0 10px #333;
      "">
        G<br>
      </div>
      <div style=""
        text-align: center;
        font-size: 24px;
        opacity: 0.3;
        border: 2px solid #999;
        border-radius: 8px;
        padding: 20px 15px;
        width: 60px;
        box-shadow: none;
      "">
        H<br>
      </div>
      <div style=""
        text-align: center;
        font-size: 24px;
        opacity: 1;
        border: 2px solid #000;
        border-radius: 8px;
        padding: 20px 15px;
        width: 60px;
        box-shadow: 0 0 10px #333;
      "">
        J<br>
      </div></div></div>","null","","","","","","","","","","","","","","","","","","",""
"","","","","","html-keyboard-response","31","2.1.0","119303","null","","
    <div style=""text-align: center;"">
      <img src=""static/images/fix_cross.jpg"" style=""width: 400px; height: 400px; margin-bottom: 30px;"">
      <div style=""display: flex; justify-content: center; gap: 40px;"">
      <div style=""
        text-align: center;
        font-size: 24px;
        opacity: 0.3;
        border: 2px solid #999;
        border-radius: 8px;
        padding: 20px 15px;
        width: 60px;
        box-shadow: none;
      "">
        F<br>
      </div>
      <div style=""
        text-align: center;
        font-size: 24px;
        opacity: 1;
        border: 2px solid #000;
        border-radius: 8px;
        padding: 20px 15px;
        width: 60px;
        box-shadow: 0 0 10px #333;
      "">
        G<br>
      </div>
      <div style=""
        text-align: center;
        font-size: 24px;
        opacity: 0.3;
        border: 2px solid #999;
        border-radius: 8px;
        padding: 20px 15px;
        width: 60px;
        box-shadow: none;
      "">
        H<br>
      </div>
      <div style=""
        text-align: center;
        font-size: 24px;
        opacity: 1;
        border: 2px solid #000;
        border-radius: 8px;
        padding: 20px 15px;
        width: 60px;
        box-shadow: 0 0 10px #333;
      "">
        J<br>
      </div></div></div>","null","","","","","","","","","","","","","","","","","","",""
"","","","","","html-keyboard-response","32","2.1.0","119681","377","","
    <div style=""text-align: center;"">
      <img src=""static/images/1.jpg"" style=""width: 400px; height: 400px; margin-bottom: 30px;"">
      <div style=""display: flex; justify-content: center; gap: 40px;"">
      <div style=""
        text-align: center;
        font-size: 24px;
        opacity: 0.3;
        border: 2px solid #999;
        border-radius: 8px;
        padding: 20px 15px;
        width: 60px;
        box-shadow: none;
      "">
        F<br>
      </div>
      <div style=""
        text-align: center;
        font-size: 24px;
        opacity: 1;
        border: 2px solid #000;
        border-radius: 8px;
        padding: 20px 15px;
        width: 60px;
        box-shadow: 0 0 10px #333;
      "">
        G<br>
      </div>
      <div style=""
        text-align: center;
        font-size: 24px;
        opacity: 0.3;
        border: 2px solid #999;
        border-radius: 8px;
        padding: 20px 15px;
        width: 60px;
        box-shadow: none;
      "">
        H<br>
      </div>
      <div style=""
        text-align: center;
        font-size: 24px;
        opacity: 1;
        border: 2px solid #000;
        border-radius: 8px;
        padding: 20px 15px;
        width: 60px;
        box-shadow: 0 0 10px #333;
      "">
        J<br>
      </div></div></div>","g","0","8","training","A3","h","f","g","j","{""A1"":0.93,""A2"":0.27,""A3"":0.73,""A4"":0.07}","1","[""A3"",""A4""]","[""j"",""g""]","1","false","1","0","0","3","1"
"","","","","","html-keyboard-response","33","2.1.0","120684","null","","
    <div style=""text-align: center;"">
      <img src=""static/images/feedback_1.jpg"" style=""width: 400px; height: 400px; margin-bottom: 30px;"">
      <div style=""display: flex; justify-content: center; gap: 40px;"">
      <div style=""
        text-align: center;
        font-size: 24px;
        opacity: 0.3;
        border: 2px solid #999;
        border-radius: 8px;
        padding: 20px 15px;
        width: 60px;
        box-shadow: none;
      "">
        F<br>
      </div>
      <div style=""
        text-align: center;
        font-size: 24px;
        opacity: 1;
        border: 2px solid #000;
        border-radius: 8px;
        padding: 20px 15px;
        width: 60px;
        box-shadow: 0 0 10px #333;
      "">
        G<br>
      </div>
      <div style=""
        text-align: center;
        font-size: 24px;
        opacity: 0.3;
        border: 2px solid #999;
        border-radius: 8px;
        padding: 20px 15px;
        width: 60px;
        box-shadow: none;
      "">
        H<br>
      </div>
      <div style=""
        text-align: center;
        font-size: 24px;
        opacity: 1;
        border: 2px solid #000;
        border-radius: 8px;
        padding: 20px 15px;
        width: 60px;
        box-shadow: 0 0 10px #333;
      "">
        J<br>
      </div></div></div>","null","","","","","","","","","","","","","","","","","","",""
"","","","","","html-keyboard-response","34","2.1.0","121187","null","","
    <div style=""text-align: center;"">
      <img src=""static/images/fix_cross.jpg"" style=""width: 400px; height: 400px; margin-bottom: 30px;"">
      <div style=""display: flex; justify-content: center; gap: 40px;"">
      <div style=""
        text-align: center;
        font-size: 24px;
        opacity: 0.3;
        border: 2px solid #999;
        border-radius: 8px;
        padding: 20px 15px;
        width: 60px;
        box-shadow: none;
      "">
        F<br>
      </div>
      <div style=""
        text-align: center;
        font-size: 24px;
        opacity: 1;
        border: 2px solid #000;
        border-radius: 8px;
        padding: 20px 15px;
        width: 60px;
        box-shadow: 0 0 10px #333;
      "">
        G<br>
      </div>
      <div style=""
        text-align: center;
        font-size: 24px;
        opacity: 0.3;
        border: 2px solid #999;
        border-radius: 8px;
        padding: 20px 15px;
        width: 60px;
        box-shadow: none;
      "">
        H<br>
      </div>
      <div style=""
        text-align: center;
        font-size: 24px;
        opacity: 1;
        border: 2px solid #000;
        border-radius: 8px;
        padding: 20px 15px;
        width: 60px;
        box-shadow: 0 0 10px #333;
      "">
        J<br>
      </div></div></div>","null","","","","","","","","","","","","","","","","","","",""
"","","","","","html-keyboard-response","35","2.1.0","121713","525","","
    <div style=""text-align: center;"">
      <img src=""static/images/6.jpg"" style=""width: 400px; height: 400px; margin-bottom: 30px;"">
      <div style=""display: flex; justify-content: center; gap: 40px;"">
      <div style=""
        text-align: center;
        font-size: 24px;
        opacity: 0.3;
        border: 2px solid #999;
        border-radius: 8px;
        padding: 20px 15px;
        width: 60px;
        box-shadow: none;
      "">
        F<br>
      </div>
      <div style=""
        text-align: center;
        font-size: 24px;
        opacity: 1;
        border: 2px solid #000;
        border-radius: 8px;
        padding: 20px 15px;
        width: 60px;
        box-shadow: 0 0 10px #333;
      "">
        G<br>
      </div>
      <div style=""
        text-align: center;
        font-size: 24px;
        opacity: 0.3;
        border: 2px solid #999;
        border-radius: 8px;
        padding: 20px 15px;
        width: 60px;
        box-shadow: none;
      "">
        H<br>
      </div>
      <div style=""
        text-align: center;
        font-size: 24px;
        opacity: 1;
        border: 2px solid #000;
        border-radius: 8px;
        padding: 20px 15px;
        width: 60px;
        box-shadow: 0 0 10px #333;
      "">
        J<br>
      </div></div></div>","g","0","9","training","A4","f","h","j","g","{""A1"":0.93,""A2"":0.27,""A3"":0.73,""A4"":0.07}","1","[""A3"",""A4""]","[""j"",""g""]","6","false","0","0","0","4","2"
"","","","","","html-keyboard-response","36","2.1.0","122716","null","","
    <div style=""text-align: center;"">
      <img src=""static/images/feedback_0.jpg"" style=""width: 400px; height: 400px; margin-bottom: 30px;"">
      <div style=""display: flex; justify-content: center; gap: 40px;"">
      <div style=""
        text-align: center;
        font-size: 24px;
        opacity: 0.3;
        border: 2px solid #999;
        border-radius: 8px;
        padding: 20px 15px;
        width: 60px;
        box-shadow: none;
      "">
        F<br>
      </div>
      <div style=""
        text-align: center;
        font-size: 24px;
        opacity: 1;
        border: 2px solid #000;
        border-radius: 8px;
        padding: 20px 15px;
        width: 60px;
        box-shadow: 0 0 10px #333;
      "">
        G<br>
      </div>
      <div style=""
        text-align: center;
        font-size: 24px;
        opacity: 0.3;
        border: 2px solid #999;
        border-radius: 8px;
        padding: 20px 15px;
        width: 60px;
        box-shadow: none;
      "">
        H<br>
      </div>
      <div style=""
        text-align: center;
        font-size: 24px;
        opacity: 1;
        border: 2px solid #000;
        border-radius: 8px;
        padding: 20px 15px;
        width: 60px;
        box-shadow: 0 0 10px #333;
      "">
        J<br>
      </div></div></div>","null","","","","","","","","","","","","","","","","","","",""
"","","","","","html-keyboard-response","37","2.1.0","123219","null","","
    <div style=""text-align: center;"">
      <img src=""static/images/fix_cross.jpg"" style=""width: 400px; height: 400px; margin-bottom: 30px;"">
      <div style=""display: flex; justify-content: center; gap: 40px;"">
      <div style=""
        text-align: center;
        font-size: 24px;
        opacity: 0.3;
        border: 2px solid #999;
        border-radius: 8px;
        padding: 20px 15px;
        width: 60px;
        box-shadow: none;
      "">
        F<br>
      </div>
      <div style=""
        text-align: center;
        font-size: 24px;
        opacity: 1;
        border: 2px solid #000;
        border-radius: 8px;
        padding: 20px 15px;
        width: 60px;
        box-shadow: 0 0 10px #333;
      "">
        G<br>
      </div>
      <div style=""
        text-align: center;
        font-size: 24px;
        opacity: 0.3;
        border: 2px solid #999;
        border-radius: 8px;
        padding: 20px 15px;
        width: 60px;
        box-shadow: none;
      "">
        H<br>
      </div>
      <div style=""
        text-align: center;
        font-size: 24px;
        opacity: 1;
        border: 2px solid #000;
        border-radius: 8px;
        padding: 20px 15px;
        width: 60px;
        box-shadow: 0 0 10px #333;
      "">
        J<br>
      </div></div></div>","null","","","","","","","","","","","","","","","","","","",""
"","","","","","html-keyboard-response","38","2.1.0","124325","1104","","
    <div style=""text-align: center;"">
      <img src=""static/images/1.jpg"" style=""width: 400px; height: 400px; margin-bottom: 30px;"">
      <div style=""display: flex; justify-content: center; gap: 40px;"">
      <div style=""
        text-align: center;
        font-size: 24px;
        opacity: 0.3;
        border: 2px solid #999;
        border-radius: 8px;
        padding: 20px 15px;
        width: 60px;
        box-shadow: none;
      "">
        F<br>
      </div>
      <div style=""
        text-align: center;
        font-size: 24px;
        opacity: 1;
        border: 2px solid #000;
        border-radius: 8px;
        padding: 20px 15px;
        width: 60px;
        box-shadow: 0 0 10px #333;
      "">
        G<br>
      </div>
      <div style=""
        text-align: center;
        font-size: 24px;
        opacity: 0.3;
        border: 2px solid #999;
        border-radius: 8px;
        padding: 20px 15px;
        width: 60px;
        box-shadow: none;
      "">
        H<br>
      </div>
      <div style=""
        text-align: center;
        font-size: 24px;
        opacity: 1;
        border: 2px solid #000;
        border-radius: 8px;
        padding: 20px 15px;
        width: 60px;
        box-shadow: 0 0 10px #333;
      "">
        J<br>
      </div></div></div>","g","0","10","training","A3","h","f","g","j","{""A1"":0.93,""A2"":0.27,""A3"":0.73,""A4"":0.07}","1","[""A3"",""A4""]","[""j"",""g""]","1","false","1","0","0","4","1"
"","","","","","html-keyboard-response","39","2.1.0","125327","null","","
    <div style=""text-align: center;"">
      <img src=""static/images/feedback_1.jpg"" style=""width: 400px; height: 400px; margin-bottom: 30px;"">
      <div style=""display: flex; justify-content: center; gap: 40px;"">
      <div style=""
        text-align: center;
        font-size: 24px;
        opacity: 0.3;
        border: 2px solid #999;
        border-radius: 8px;
        padding: 20px 15px;
        width: 60px;
        box-shadow: none;
      "">
        F<br>
      </div>
      <div style=""
        text-align: center;
        font-size: 24px;
        opacity: 1;
        border: 2px solid #000;
        border-radius: 8px;
        padding: 20px 15px;
        width: 60px;
        box-shadow: 0 0 10px #333;
      "">
        G<br>
      </div>
      <div style=""
        text-align: center;
        font-size: 24px;
        opacity: 0.3;
        border: 2px solid #999;
        border-radius: 8px;
        padding: 20px 15px;
        width: 60px;
        box-shadow: none;
      "">
        H<br>
      </div>
      <div style=""
        text-align: center;
        font-size: 24px;
        opacity: 1;
        border: 2px solid #000;
        border-radius: 8px;
        padding: 20px 15px;
        width: 60px;
        box-shadow: 0 0 10px #333;
      "">
        J<br>
      </div></div></div>","null","","","","","","","","","","","","","","","","","","",""
"","","","","","html-keyboard-response","40","2.1.0","125830","null","","
    <div style=""text-align: center;"">
      <img src=""static/images/fix_cross.jpg"" style=""width: 400px; height: 400px; margin-bottom: 30px;"">
      <div style=""display: flex; justify-content: center; gap: 40px;"">
      <div style=""
        text-align: center;
        font-size: 24px;
        opacity: 0.3;
        border: 2px solid #999;
        border-radius: 8px;
        padding: 20px 15px;
        width: 60px;
        box-shadow: none;
      "">
        F<br>
      </div>
      <div style=""
        text-align: center;
        font-size: 24px;
        opacity: 1;
        border: 2px solid #000;
        border-radius: 8px;
        padding: 20px 15px;
        width: 60px;
        box-shadow: 0 0 10px #333;
      "">
        G<br>
      </div>
      <div style=""
        text-align: center;
        font-size: 24px;
        opacity: 0.3;
        border: 2px solid #999;
        border-radius: 8px;
        padding: 20px 15px;
        width: 60px;
        box-shadow: none;
      "">
        H<br>
      </div>
      <div style=""
        text-align: center;
        font-size: 24px;
        opacity: 1;
        border: 2px solid #000;
        border-radius: 8px;
        padding: 20px 15px;
        width: 60px;
        box-shadow: 0 0 10px #333;
      "">
        J<br>
      </div></div></div>","null","","","","","","","","","","","","","","","","","","",""
"","","","","","html-keyboard-response","41","2.1.0","126804","973","","
    <div style=""text-align: center;"">
      <img src=""static/images/g.jpg"" style=""width: 400px; height: 400px; margin-bottom: 30px;"">
      <div style=""display: flex; justify-content: center; gap: 40px;"">
      <div style=""
        text-align: center;
        font-size: 24px;
        opacity: 0.3;
        border: 2px solid #999;
        border-radius: 8px;
        padding: 20px 15px;
        width: 60px;
        box-shadow: none;
      "">
        F<br>
      </div>
      <div style=""
        text-align: center;
        font-size: 24px;
        opacity: 1;
        border: 2px solid #000;
        border-radius: 8px;
        padding: 20px 15px;
        width: 60px;
        box-shadow: 0 0 10px #333;
      "">
        G<br>
      </div>
      <div style=""
        text-align: center;
        font-size: 24px;
        opacity: 0.3;
        border: 2px solid #999;
        border-radius: 8px;
        padding: 20px 15px;
        width: 60px;
        box-shadow: none;
      "">
        H<br>
      </div>
      <div style=""
        text-align: center;
        font-size: 24px;
        opacity: 1;
        border: 2px solid #000;
        border-radius: 8px;
        padding: 20px 15px;
        width: 60px;
        box-shadow: 0 0 10px #333;
      "">
        J<br>
      </div></div></div>","g","0","11","training","A3","h","f","g","j","{""A1"":0.93,""A2"":0.27,""A3"":0.73,""A4"":0.07}","1","[""A3"",""A4""]","[""j"",""g""]","g","true","1","","","",""
"","","","","","html-keyboard-response","42","2.1.0","127807","null","","<p style='color:green; font-size: 48px;'>Correct!</p>","null","","","","","","","","","","","","","","","","","","",""
"","","","","","html-keyboard-response","43","2.1.0","128310","null","","
    <div style=""text-align: center;"">
      <img src=""static/images/fix_cross.jpg"" style=""width: 400px; height: 400px; margin-bottom: 30px;"">
      <div style=""display: flex; justify-content: center; gap: 40px;"">
      <div style=""
        text-align: center;
        font-size: 24px;
        opacity: 0.3;
        border: 2px solid #999;
        border-radius: 8px;
        padding: 20px 15px;
        width: 60px;
        box-shadow: none;
      "">
        F<br>
      </div>
      <div style=""
        text-align: center;
        font-size: 24px;
        opacity: 1;
        border: 2px solid #000;
        border-radius: 8px;
        padding: 20px 15px;
        width: 60px;
        box-shadow: 0 0 10px #333;
      "">
        G<br>
      </div>
      <div style=""
        text-align: center;
        font-size: 24px;
        opacity: 0.3;
        border: 2px solid #999;
        border-radius: 8px;
        padding: 20px 15px;
        width: 60px;
        box-shadow: none;
      "">
        H<br>
      </div>
      <div style=""
        text-align: center;
        font-size: 24px;
        opacity: 1;
        border: 2px solid #000;
        border-radius: 8px;
        padding: 20px 15px;
        width: 60px;
        box-shadow: 0 0 10px #333;
      "">
        J<br>
      </div></div></div>","null","","","","","","","","","","","","","","","","","","",""
"","","","","","html-keyboard-response","44","2.1.0","129370","1058","","
    <div style=""text-align: center;"">
      <img src=""static/images/1.jpg"" style=""width: 400px; height: 400px; margin-bottom: 30px;"">
      <div style=""display: flex; justify-content: center; gap: 40px;"">
      <div style=""
        text-align: center;
        font-size: 24px;
        opacity: 0.3;
        border: 2px solid #999;
        border-radius: 8px;
        padding: 20px 15px;
        width: 60px;
        box-shadow: none;
      "">
        F<br>
      </div>
      <div style=""
        text-align: center;
        font-size: 24px;
        opacity: 1;
        border: 2px solid #000;
        border-radius: 8px;
        padding: 20px 15px;
        width: 60px;
        box-shadow: 0 0 10px #333;
      "">
        G<br>
      </div>
      <div style=""
        text-align: center;
        font-size: 24px;
        opacity: 0.3;
        border: 2px solid #999;
        border-radius: 8px;
        padding: 20px 15px;
        width: 60px;
        box-shadow: none;
      "">
        H<br>
      </div>
      <div style=""
        text-align: center;
        font-size: 24px;
        opacity: 1;
        border: 2px solid #000;
        border-radius: 8px;
        padding: 20px 15px;
        width: 60px;
        box-shadow: 0 0 10px #333;
      "">
        J<br>
      </div></div></div>","j","0","11","training","A4","h","f","g","j","{""A1"":0.93,""A2"":0.27,""A3"":0.73,""A4"":0.07}","1","[""A3"",""A4""]","[""j"",""g""]","1","false","0","0","0","4","2"
"","","","","","html-keyboard-response","45","2.1.0","130373","null","","
    <div style=""text-align: center;"">
      <img src=""static/images/feedback_0.jpg"" style=""width: 400px; height: 400px; margin-bottom: 30px;"">
      <div style=""display: flex; justify-content: center; gap: 40px;"">
      <div style=""
        text-align: center;
        font-size: 24px;
        opacity: 0.3;
        border: 2px solid #999;
        border-radius: 8px;
        padding: 20px 15px;
        width: 60px;
        box-shadow: none;
      "">
        F<br>
      </div>
      <div style=""
        text-align: center;
        font-size: 24px;
        opacity: 1;
        border: 2px solid #000;
        border-radius: 8px;
        padding: 20px 15px;
        width: 60px;
        box-shadow: 0 0 10px #333;
      "">
        G<br>
      </div>
      <div style=""
        text-align: center;
        font-size: 24px;
        opacity: 0.3;
        border: 2px solid #999;
        border-radius: 8px;
        padding: 20px 15px;
        width: 60px;
        box-shadow: none;
      "">
        H<br>
      </div>
      <div style=""
        text-align: center;
        font-size: 24px;
        opacity: 1;
        border: 2px solid #000;
        border-radius: 8px;
        padding: 20px 15px;
        width: 60px;
        box-shadow: 0 0 10px #333;
      "">
        J<br>
      </div></div></div>","null","","","","","","","","","","","","","","","","","","",""
"","","","","","html-keyboard-response","46","2.1.0","130875","null","","
    <div style=""text-align: center;"">
      <img src=""static/images/fix_cross.jpg"" style=""width: 400px; height: 400px; margin-bottom: 30px;"">
      <div style=""display: flex; justify-content: center; gap: 40px;"">
      <div style=""
        text-align: center;
        font-size: 24px;
        opacity: 0.3;
        border: 2px solid #999;
        border-radius: 8px;
        padding: 20px 15px;
        width: 60px;
        box-shadow: none;
      "">
        F<br>
      </div>
      <div style=""
        text-align: center;
        font-size: 24px;
        opacity: 1;
        border: 2px solid #000;
        border-radius: 8px;
        padding: 20px 15px;
        width: 60px;
        box-shadow: 0 0 10px #333;
      "">
        G<br>
      </div>
      <div style=""
        text-align: center;
        font-size: 24px;
        opacity: 0.3;
        border: 2px solid #999;
        border-radius: 8px;
        padding: 20px 15px;
        width: 60px;
        box-shadow: none;
      "">
        H<br>
      </div>
      <div style=""
        text-align: center;
        font-size: 24px;
        opacity: 1;
        border: 2px solid #000;
        border-radius: 8px;
        padding: 20px 15px;
        width: 60px;
        box-shadow: 0 0 10px #333;
      "">
        J<br>
      </div></div></div>","null","","","","","","","","","","","","","","","","","","",""
"","","","","","html-keyboard-response","47","2.1.0","131918","1041","","
    <div style=""text-align: center;"">
      <img src=""static/images/6.jpg"" style=""width: 400px; height: 400px; margin-bottom: 30px;"">
      <div style=""display: flex; justify-content: center; gap: 40px;"">
      <div style=""
        text-align: center;
        font-size: 24px;
        opacity: 0.3;
        border: 2px solid #999;
        border-radius: 8px;
        padding: 20px 15px;
        width: 60px;
        box-shadow: none;
      "">
        F<br>
      </div>
      <div style=""
        text-align: center;
        font-size: 24px;
        opacity: 1;
        border: 2px solid #000;
        border-radius: 8px;
        padding: 20px 15px;
        width: 60px;
        box-shadow: 0 0 10px #333;
      "">
        G<br>
      </div>
      <div style=""
        text-align: center;
        font-size: 24px;
        opacity: 0.3;
        border: 2px solid #999;
        border-radius: 8px;
        padding: 20px 15px;
        width: 60px;
        box-shadow: none;
      "">
        H<br>
      </div>
      <div style=""
        text-align: center;
        font-size: 24px;
        opacity: 1;
        border: 2px solid #000;
        border-radius: 8px;
        padding: 20px 15px;
        width: 60px;
        box-shadow: 0 0 10px #333;
      "">
        J<br>
      </div></div></div>","j","0","12","training","A3","f","h","j","g","{""A1"":0.93,""A2"":0.27,""A3"":0.73,""A4"":0.07}","1","[""A3"",""A4""]","[""j"",""g""]","6","false","1","0","0","5","2"
"","","","","","html-keyboard-response","48","2.1.0","132921","null","","
    <div style=""text-align: center;"">
      <img src=""static/images/feedback_1.jpg"" style=""width: 400px; height: 400px; margin-bottom: 30px;"">
      <div style=""display: flex; justify-content: center; gap: 40px;"">
      <div style=""
        text-align: center;
        font-size: 24px;
        opacity: 0.3;
        border: 2px solid #999;
        border-radius: 8px;
        padding: 20px 15px;
        width: 60px;
        box-shadow: none;
      "">
        F<br>
      </div>
      <div style=""
        text-align: center;
        font-size: 24px;
        opacity: 1;
        border: 2px solid #000;
        border-radius: 8px;
        padding: 20px 15px;
        width: 60px;
        box-shadow: 0 0 10px #333;
      "">
        G<br>
      </div>
      <div style=""
        text-align: center;
        font-size: 24px;
        opacity: 0.3;
        border: 2px solid #999;
        border-radius: 8px;
        padding: 20px 15px;
        width: 60px;
        box-shadow: none;
      "">
        H<br>
      </div>
      <div style=""
        text-align: center;
        font-size: 24px;
        opacity: 1;
        border: 2px solid #000;
        border-radius: 8px;
        padding: 20px 15px;
        width: 60px;
        box-shadow: 0 0 10px #333;
      "">
        J<br>
      </div></div></div>","null","","","","","","","","","","","","","","","","","","",""
"","","","","","html-keyboard-response","49","2.1.0","133424","null","","
    <div style=""text-align: center;"">
      <img src=""static/images/fix_cross.jpg"" style=""width: 400px; height: 400px; margin-bottom: 30px;"">
      <div style=""display: flex; justify-content: center; gap: 40px;"">
      <div style=""
        text-align: center;
        font-size: 24px;
        opacity: 0.3;
        border: 2px solid #999;
        border-radius: 8px;
        padding: 20px 15px;
        width: 60px;
        box-shadow: none;
      "">
        F<br>
      </div>
      <div style=""
        text-align: center;
        font-size: 24px;
        opacity: 1;
        border: 2px solid #000;
        border-radius: 8px;
        padding: 20px 15px;
        width: 60px;
        box-shadow: 0 0 10px #333;
      "">
        G<br>
      </div>
      <div style=""
        text-align: center;
        font-size: 24px;
        opacity: 0.3;
        border: 2px solid #999;
        border-radius: 8px;
        padding: 20px 15px;
        width: 60px;
        box-shadow: none;
      "">
        H<br>
      </div>
      <div style=""
        text-align: center;
        font-size: 24px;
        opacity: 1;
        border: 2px solid #000;
        border-radius: 8px;
        padding: 20px 15px;
        width: 60px;
        box-shadow: 0 0 10px #333;
      "">
        J<br>
      </div></div></div>","null","","","","","","","","","","","","","","","","","","",""
"","","","","","html-keyboard-response","50","2.1.0","133859","434","","
    <div style=""text-align: center;"">
      <img src=""static/images/6.jpg"" style=""width: 400px; height: 400px; margin-bottom: 30px;"">
      <div style=""display: flex; justify-content: center; gap: 40px;"">
      <div style=""
        text-align: center;
        font-size: 24px;
        opacity: 0.3;
        border: 2px solid #999;
        border-radius: 8px;
        padding: 20px 15px;
        width: 60px;
        box-shadow: none;
      "">
        F<br>
      </div>
      <div style=""
        text-align: center;
        font-size: 24px;
        opacity: 1;
        border: 2px solid #000;
        border-radius: 8px;
        padding: 20px 15px;
        width: 60px;
        box-shadow: 0 0 10px #333;
      "">
        G<br>
      </div>
      <div style=""
        text-align: center;
        font-size: 24px;
        opacity: 0.3;
        border: 2px solid #999;
        border-radius: 8px;
        padding: 20px 15px;
        width: 60px;
        box-shadow: none;
      "">
        H<br>
      </div>
      <div style=""
        text-align: center;
        font-size: 24px;
        opacity: 1;
        border: 2px solid #000;
        border-radius: 8px;
        padding: 20px 15px;
        width: 60px;
        box-shadow: 0 0 10px #333;
      "">
        J<br>
      </div></div></div>","j","0","13","training","A3","f","h","j","g","{""A1"":0.93,""A2"":0.27,""A3"":0.73,""A4"":0.07}","1","[""A3"",""A4""]","[""j"",""g""]","6","false","0","0","0","6","2"
"","","","","","html-keyboard-response","51","2.1.0","134862","null","","
    <div style=""text-align: center;"">
      <img src=""static/images/feedback_0.jpg"" style=""width: 400px; height: 400px; margin-bottom: 30px;"">
      <div style=""display: flex; justify-content: center; gap: 40px;"">
      <div style=""
        text-align: center;
        font-size: 24px;
        opacity: 0.3;
        border: 2px solid #999;
        border-radius: 8px;
        padding: 20px 15px;
        width: 60px;
        box-shadow: none;
      "">
        F<br>
      </div>
      <div style=""
        text-align: center;
        font-size: 24px;
        opacity: 1;
        border: 2px solid #000;
        border-radius: 8px;
        padding: 20px 15px;
        width: 60px;
        box-shadow: 0 0 10px #333;
      "">
        G<br>
      </div>
      <div style=""
        text-align: center;
        font-size: 24px;
        opacity: 0.3;
        border: 2px solid #999;
        border-radius: 8px;
        padding: 20px 15px;
        width: 60px;
        box-shadow: none;
      "">
        H<br>
      </div>
      <div style=""
        text-align: center;
        font-size: 24px;
        opacity: 1;
        border: 2px solid #000;
        border-radius: 8px;
        padding: 20px 15px;
        width: 60px;
        box-shadow: 0 0 10px #333;
      "">
        J<br>
      </div></div></div>","null","","","","","","","","","","","","","","","","","","",""
"","","","","","html-keyboard-response","52","2.1.0","135365","null","","
    <div style=""text-align: center;"">
      <img src=""static/images/fix_cross.jpg"" style=""width: 400px; height: 400px; margin-bottom: 30px;"">
      <div style=""display: flex; justify-content: center; gap: 40px;"">
      <div style=""
        text-align: center;
        font-size: 24px;
        opacity: 0.3;
        border: 2px solid #999;
        border-radius: 8px;
        padding: 20px 15px;
        width: 60px;
        box-shadow: none;
      "">
        F<br>
      </div>
      <div style=""
        text-align: center;
        font-size: 24px;
        opacity: 1;
        border: 2px solid #000;
        border-radius: 8px;
        padding: 20px 15px;
        width: 60px;
        box-shadow: 0 0 10px #333;
      "">
        G<br>
      </div>
      <div style=""
        text-align: center;
        font-size: 24px;
        opacity: 0.3;
        border: 2px solid #999;
        border-radius: 8px;
        padding: 20px 15px;
        width: 60px;
        box-shadow: none;
      "">
        H<br>
      </div>
      <div style=""
        text-align: center;
        font-size: 24px;
        opacity: 1;
        border: 2px solid #000;
        border-radius: 8px;
        padding: 20px 15px;
        width: 60px;
        box-shadow: 0 0 10px #333;
      "">
        J<br>
      </div></div></div>","null","","","","","","","","","","","","","","","","","","",""
"","","","","","html-keyboard-response","53","2.1.0","136030","665","","
    <div style=""text-align: center;"">
      <img src=""static/images/1.jpg"" style=""width: 400px; height: 400px; margin-bottom: 30px;"">
      <div style=""display: flex; justify-content: center; gap: 40px;"">
      <div style=""
        text-align: center;
        font-size: 24px;
        opacity: 0.3;
        border: 2px solid #999;
        border-radius: 8px;
        padding: 20px 15px;
        width: 60px;
        box-shadow: none;
      "">
        F<br>
      </div>
      <div style=""
        text-align: center;
        font-size: 24px;
        opacity: 1;
        border: 2px solid #000;
        border-radius: 8px;
        padding: 20px 15px;
        width: 60px;
        box-shadow: 0 0 10px #333;
      "">
        G<br>
      </div>
      <div style=""
        text-align: center;
        font-size: 24px;
        opacity: 0.3;
        border: 2px solid #999;
        border-radius: 8px;
        padding: 20px 15px;
        width: 60px;
        box-shadow: none;
      "">
        H<br>
      </div>
      <div style=""
        text-align: center;
        font-size: 24px;
        opacity: 1;
        border: 2px solid #000;
        border-radius: 8px;
        padding: 20px 15px;
        width: 60px;
        box-shadow: 0 0 10px #333;
      "">
        J<br>
      </div></div></div>","g","0","14","training","A3","h","f","g","j","{""A1"":0.93,""A2"":0.27,""A3"":0.73,""A4"":0.07}","1","[""A3"",""A4""]","[""j"",""g""]","1","false","1","0","0","5","2"
"","","","","","html-keyboard-response","54","2.1.0","137033","null","","
    <div style=""text-align: center;"">
      <img src=""static/images/feedback_1.jpg"" style=""width: 400px; height: 400px; margin-bottom: 30px;"">
      <div style=""display: flex; justify-content: center; gap: 40px;"">
      <div style=""
        text-align: center;
        font-size: 24px;
        opacity: 0.3;
        border: 2px solid #999;
        border-radius: 8px;
        padding: 20px 15px;
        width: 60px;
        box-shadow: none;
      "">
        F<br>
      </div>
      <div style=""
        text-align: center;
        font-size: 24px;
        opacity: 1;
        border: 2px solid #000;
        border-radius: 8px;
        padding: 20px 15px;
        width: 60px;
        box-shadow: 0 0 10px #333;
      "">
        G<br>
      </div>
      <div style=""
        text-align: center;
        font-size: 24px;
        opacity: 0.3;
        border: 2px solid #999;
        border-radius: 8px;
        padding: 20px 15px;
        width: 60px;
        box-shadow: none;
      "">
        H<br>
      </div>
      <div style=""
        text-align: center;
        font-size: 24px;
        opacity: 1;
        border: 2px solid #000;
        border-radius: 8px;
        padding: 20px 15px;
        width: 60px;
        box-shadow: 0 0 10px #333;
      "">
        J<br>
      </div></div></div>","null","","","","","","","","","","","","","","","","","","",""
"","","","","","html-keyboard-response","55","2.1.0","137536","null","","
    <div style=""text-align: center;"">
      <img src=""static/images/fix_cross.jpg"" style=""width: 400px; height: 400px; margin-bottom: 30px;"">
      <div style=""display: flex; justify-content: center; gap: 40px;"">
      <div style=""
        text-align: center;
        font-size: 24px;
        opacity: 0.3;
        border: 2px solid #999;
        border-radius: 8px;
        padding: 20px 15px;
        width: 60px;
        box-shadow: none;
      "">
        F<br>
      </div>
      <div style=""
        text-align: center;
        font-size: 24px;
        opacity: 1;
        border: 2px solid #000;
        border-radius: 8px;
        padding: 20px 15px;
        width: 60px;
        box-shadow: 0 0 10px #333;
      "">
        G<br>
      </div>
      <div style=""
        text-align: center;
        font-size: 24px;
        opacity: 0.3;
        border: 2px solid #999;
        border-radius: 8px;
        padding: 20px 15px;
        width: 60px;
        box-shadow: none;
      "">
        H<br>
      </div>
      <div style=""
        text-align: center;
        font-size: 24px;
        opacity: 1;
        border: 2px solid #000;
        border-radius: 8px;
        padding: 20px 15px;
        width: 60px;
        box-shadow: 0 0 10px #333;
      "">
        J<br>
      </div></div></div>","null","","","","","","","","","","","","","","","","","","",""
"","","","","","html-keyboard-response","56","2.1.0","137988","450","","
    <div style=""text-align: center;"">
      <img src=""static/images/1.jpg"" style=""width: 400px; height: 400px; margin-bottom: 30px;"">
      <div style=""display: flex; justify-content: center; gap: 40px;"">
      <div style=""
        text-align: center;
        font-size: 24px;
        opacity: 0.3;
        border: 2px solid #999;
        border-radius: 8px;
        padding: 20px 15px;
        width: 60px;
        box-shadow: none;
      "">
        F<br>
      </div>
      <div style=""
        text-align: center;
        font-size: 24px;
        opacity: 1;
        border: 2px solid #000;
        border-radius: 8px;
        padding: 20px 15px;
        width: 60px;
        box-shadow: 0 0 10px #333;
      "">
        G<br>
      </div>
      <div style=""
        text-align: center;
        font-size: 24px;
        opacity: 0.3;
        border: 2px solid #999;
        border-radius: 8px;
        padding: 20px 15px;
        width: 60px;
        box-shadow: none;
      "">
        H<br>
      </div>
      <div style=""
        text-align: center;
        font-size: 24px;
        opacity: 1;
        border: 2px solid #000;
        border-radius: 8px;
        padding: 20px 15px;
        width: 60px;
        box-shadow: 0 0 10px #333;
      "">
        J<br>
      </div></div></div>","g","0","15","training","A3","h","f","g","j","{""A1"":0.93,""A2"":0.27,""A3"":0.73,""A4"":0.07}","1","[""A3"",""A4""]","[""j"",""g""]","1","false","1","0","0","6","2"
"","","","","","html-keyboard-response","57","2.1.0","138991","null","","
    <div style=""text-align: center;"">
      <img src=""static/images/feedback_1.jpg"" style=""width: 400px; height: 400px; margin-bottom: 30px;"">
      <div style=""display: flex; justify-content: center; gap: 40px;"">
      <div style=""
        text-align: center;
        font-size: 24px;
        opacity: 0.3;
        border: 2px solid #999;
        border-radius: 8px;
        padding: 20px 15px;
        width: 60px;
        box-shadow: none;
      "">
        F<br>
      </div>
      <div style=""
        text-align: center;
        font-size: 24px;
        opacity: 1;
        border: 2px solid #000;
        border-radius: 8px;
        padding: 20px 15px;
        width: 60px;
        box-shadow: 0 0 10px #333;
      "">
        G<br>
      </div>
      <div style=""
        text-align: center;
        font-size: 24px;
        opacity: 0.3;
        border: 2px solid #999;
        border-radius: 8px;
        padding: 20px 15px;
        width: 60px;
        box-shadow: none;
      "">
        H<br>
      </div>
      <div style=""
        text-align: center;
        font-size: 24px;
        opacity: 1;
        border: 2px solid #000;
        border-radius: 8px;
        padding: 20px 15px;
        width: 60px;
        box-shadow: 0 0 10px #333;
      "">
        J<br>
      </div></div></div>","null","","","","","","","","","","","","","","","","","","",""
"","","","","","html-keyboard-response","58","2.1.0","139494","null","","
    <div style=""text-align: center;"">
      <img src=""static/images/fix_cross.jpg"" style=""width: 400px; height: 400px; margin-bottom: 30px;"">
      <div style=""display: flex; justify-content: center; gap: 40px;"">
      <div style=""
        text-align: center;
        font-size: 24px;
        opacity: 0.3;
        border: 2px solid #999;
        border-radius: 8px;
        padding: 20px 15px;
        width: 60px;
        box-shadow: none;
      "">
        F<br>
      </div>
      <div style=""
        text-align: center;
        font-size: 24px;
        opacity: 1;
        border: 2px solid #000;
        border-radius: 8px;
        padding: 20px 15px;
        width: 60px;
        box-shadow: 0 0 10px #333;
      "">
        G<br>
      </div>
      <div style=""
        text-align: center;
        font-size: 24px;
        opacity: 0.3;
        border: 2px solid #999;
        border-radius: 8px;
        padding: 20px 15px;
        width: 60px;
        box-shadow: none;
      "">
        H<br>
      </div>
      <div style=""
        text-align: center;
        font-size: 24px;
        opacity: 1;
        border: 2px solid #000;
        border-radius: 8px;
        padding: 20px 15px;
        width: 60px;
        box-shadow: 0 0 10px #333;
      "">
        J<br>
      </div></div></div>","null","","","","","","","","","","","","","","","","","","",""
"","","","","","html-keyboard-response","59","2.1.0","140027","532","","
    <div style=""text-align: center;"">
      <img src=""static/images/6.jpg"" style=""width: 400px; height: 400px; margin-bottom: 30px;"">
      <div style=""display: flex; justify-content: center; gap: 40px;"">
      <div style=""
        text-align: center;
        font-size: 24px;
        opacity: 0.3;
        border: 2px solid #999;
        border-radius: 8px;
        padding: 20px 15px;
        width: 60px;
        box-shadow: none;
      "">
        F<br>
      </div>
      <div style=""
        text-align: center;
        font-size: 24px;
        opacity: 1;
        border: 2px solid #000;
        border-radius: 8px;
        padding: 20px 15px;
        width: 60px;
        box-shadow: 0 0 10px #333;
      "">
        G<br>
      </div>
      <div style=""
        text-align: center;
        font-size: 24px;
        opacity: 0.3;
        border: 2px solid #999;
        border-radius: 8px;
        padding: 20px 15px;
        width: 60px;
        box-shadow: none;
      "">
        H<br>
      </div>
      <div style=""
        text-align: center;
        font-size: 24px;
        opacity: 1;
        border: 2px solid #000;
        border-radius: 8px;
        padding: 20px 15px;
        width: 60px;
        box-shadow: 0 0 10px #333;
      "">
        J<br>
      </div></div></div>","g","0","16","training","A4","f","h","j","g","{""A1"":0.93,""A2"":0.27,""A3"":0.73,""A4"":0.07}","1","[""A3"",""A4""]","[""j"",""g""]","6","false","0","0","0","6","3"
"","","","","","html-keyboard-response","60","2.1.0","141029","null","","
    <div style=""text-align: center;"">
      <img src=""static/images/feedback_0.jpg"" style=""width: 400px; height: 400px; margin-bottom: 30px;"">
      <div style=""display: flex; justify-content: center; gap: 40px;"">
      <div style=""
        text-align: center;
        font-size: 24px;
        opacity: 0.3;
        border: 2px solid #999;
        border-radius: 8px;
        padding: 20px 15px;
        width: 60px;
        box-shadow: none;
      "">
        F<br>
      </div>
      <div style=""
        text-align: center;
        font-size: 24px;
        opacity: 1;
        border: 2px solid #000;
        border-radius: 8px;
        padding: 20px 15px;
        width: 60px;
        box-shadow: 0 0 10px #333;
      "">
        G<br>
      </div>
      <div style=""
        text-align: center;
        font-size: 24px;
        opacity: 0.3;
        border: 2px solid #999;
        border-radius: 8px;
        padding: 20px 15px;
        width: 60px;
        box-shadow: none;
      "">
        H<br>
      </div>
      <div style=""
        text-align: center;
        font-size: 24px;
        opacity: 1;
        border: 2px solid #000;
        border-radius: 8px;
        padding: 20px 15px;
        width: 60px;
        box-shadow: 0 0 10px #333;
      "">
        J<br>
      </div></div></div>","null","","","","","","","","","","","","","","","","","","",""
"","","","","","html-keyboard-response","61","2.1.0","141533","null","","
    <div style=""text-align: center;"">
      <img src=""static/images/fix_cross.jpg"" style=""width: 400px; height: 400px; margin-bottom: 30px;"">
      <div style=""display: flex; justify-content: center; gap: 40px;"">
      <div style=""
        text-align: center;
        font-size: 24px;
        opacity: 0.3;
        border: 2px solid #999;
        border-radius: 8px;
        padding: 20px 15px;
        width: 60px;
        box-shadow: none;
      "">
        F<br>
      </div>
      <div style=""
        text-align: center;
        font-size: 24px;
        opacity: 1;
        border: 2px solid #000;
        border-radius: 8px;
        padding: 20px 15px;
        width: 60px;
        box-shadow: 0 0 10px #333;
      "">
        G<br>
      </div>
      <div style=""
        text-align: center;
        font-size: 24px;
        opacity: 0.3;
        border: 2px solid #999;
        border-radius: 8px;
        padding: 20px 15px;
        width: 60px;
        box-shadow: none;
      "">
        H<br>
      </div>
      <div style=""
        text-align: center;
        font-size: 24px;
        opacity: 1;
        border: 2px solid #000;
        border-radius: 8px;
        padding: 20px 15px;
        width: 60px;
        box-shadow: 0 0 10px #333;
      "">
        J<br>
      </div></div></div>","null","","","","","","","","","","","","","","","","","","",""
"","","","","","html-keyboard-response","62","2.1.0","142209","676","","
    <div style=""text-align: center;"">
      <img src=""static/images/6.jpg"" style=""width: 400px; height: 400px; margin-bottom: 30px;"">
      <div style=""display: flex; justify-content: center; gap: 40px;"">
      <div style=""
        text-align: center;
        font-size: 24px;
        opacity: 0.3;
        border: 2px solid #999;
        border-radius: 8px;
        padding: 20px 15px;
        width: 60px;
        box-shadow: none;
      "">
        F<br>
      </div>
      <div style=""
        text-align: center;
        font-size: 24px;
        opacity: 1;
        border: 2px solid #000;
        border-radius: 8px;
        padding: 20px 15px;
        width: 60px;
        box-shadow: 0 0 10px #333;
      "">
        G<br>
      </div>
      <div style=""
        text-align: center;
        font-size: 24px;
        opacity: 0.3;
        border: 2px solid #999;
        border-radius: 8px;
        padding: 20px 15px;
        width: 60px;
        box-shadow: none;
      "">
        H<br>
      </div>
      <div style=""
        text-align: center;
        font-size: 24px;
        opacity: 1;
        border: 2px solid #000;
        border-radius: 8px;
        padding: 20px 15px;
        width: 60px;
        box-shadow: 0 0 10px #333;
      "">
        J<br>
      </div></div></div>","j","0","17","training","A3","f","h","j","g","{""A1"":0.93,""A2"":0.27,""A3"":0.73,""A4"":0.07}","1","[""A3"",""A4""]","[""j"",""g""]","6","false","1","0","0","7","3"
"","","","","","html-keyboard-response","63","2.1.0","143212","null","","
    <div style=""text-align: center;"">
      <img src=""static/images/feedback_1.jpg"" style=""width: 400px; height: 400px; margin-bottom: 30px;"">
      <div style=""display: flex; justify-content: center; gap: 40px;"">
      <div style=""
        text-align: center;
        font-size: 24px;
        opacity: 0.3;
        border: 2px solid #999;
        border-radius: 8px;
        padding: 20px 15px;
        width: 60px;
        box-shadow: none;
      "">
        F<br>
      </div>
      <div style=""
        text-align: center;
        font-size: 24px;
        opacity: 1;
        border: 2px solid #000;
        border-radius: 8px;
        padding: 20px 15px;
        width: 60px;
        box-shadow: 0 0 10px #333;
      "">
        G<br>
      </div>
      <div style=""
        text-align: center;
        font-size: 24px;
        opacity: 0.3;
        border: 2px solid #999;
        border-radius: 8px;
        padding: 20px 15px;
        width: 60px;
        box-shadow: none;
      "">
        H<br>
      </div>
      <div style=""
        text-align: center;
        font-size: 24px;
        opacity: 1;
        border: 2px solid #000;
        border-radius: 8px;
        padding: 20px 15px;
        width: 60px;
        box-shadow: 0 0 10px #333;
      "">
        J<br>
      </div></div></div>","null","","","","","","","","","","","","","","","","","","",""
"","","","","","html-keyboard-response","64","2.1.0","143715","null","","
    <div style=""text-align: center;"">
      <img src=""static/images/fix_cross.jpg"" style=""width: 400px; height: 400px; margin-bottom: 30px;"">
      <div style=""display: flex; justify-content: center; gap: 40px;"">
      <div style=""
        text-align: center;
        font-size: 24px;
        opacity: 0.3;
        border: 2px solid #999;
        border-radius: 8px;
        padding: 20px 15px;
        width: 60px;
        box-shadow: none;
      "">
        F<br>
      </div>
      <div style=""
        text-align: center;
        font-size: 24px;
        opacity: 1;
        border: 2px solid #000;
        border-radius: 8px;
        padding: 20px 15px;
        width: 60px;
        box-shadow: 0 0 10px #333;
      "">
        G<br>
      </div>
      <div style=""
        text-align: center;
        font-size: 24px;
        opacity: 0.3;
        border: 2px solid #999;
        border-radius: 8px;
        padding: 20px 15px;
        width: 60px;
        box-shadow: none;
      "">
        H<br>
      </div>
      <div style=""
        text-align: center;
        font-size: 24px;
        opacity: 1;
        border: 2px solid #000;
        border-radius: 8px;
        padding: 20px 15px;
        width: 60px;
        box-shadow: 0 0 10px #333;
      "">
        J<br>
      </div></div></div>","null","","","","","","","","","","","","","","","","","","",""
"","","","","","html-keyboard-response","65","2.1.0","144144","427","","
    <div style=""text-align: center;"">
      <img src=""static/images/6.jpg"" style=""width: 400px; height: 400px; margin-bottom: 30px;"">
      <div style=""display: flex; justify-content: center; gap: 40px;"">
      <div style=""
        text-align: center;
        font-size: 24px;
        opacity: 0.3;
        border: 2px solid #999;
        border-radius: 8px;
        padding: 20px 15px;
        width: 60px;
        box-shadow: none;
      "">
        F<br>
      </div>
      <div style=""
        text-align: center;
        font-size: 24px;
        opacity: 1;
        border: 2px solid #000;
        border-radius: 8px;
        padding: 20px 15px;
        width: 60px;
        box-shadow: 0 0 10px #333;
      "">
        G<br>
      </div>
      <div style=""
        text-align: center;
        font-size: 24px;
        opacity: 0.3;
        border: 2px solid #999;
        border-radius: 8px;
        padding: 20px 15px;
        width: 60px;
        box-shadow: none;
      "">
        H<br>
      </div>
      <div style=""
        text-align: center;
        font-size: 24px;
        opacity: 1;
        border: 2px solid #000;
        border-radius: 8px;
        padding: 20px 15px;
        width: 60px;
        box-shadow: 0 0 10px #333;
      "">
        J<br>
      </div></div></div>","j","0","18","training","A3","f","h","j","g","{""A1"":0.93,""A2"":0.27,""A3"":0.73,""A4"":0.07}","1","[""A3"",""A4""]","[""j"",""g""]","6","false","0","0","0","8","3"
"","","","","","html-keyboard-response","66","2.1.0","145147","null","","
    <div style=""text-align: center;"">
      <img src=""static/images/feedback_0.jpg"" style=""width: 400px; height: 400px; margin-bottom: 30px;"">
      <div style=""display: flex; justify-content: center; gap: 40px;"">
      <div style=""
        text-align: center;
        font-size: 24px;
        opacity: 0.3;
        border: 2px solid #999;
        border-radius: 8px;
        padding: 20px 15px;
        width: 60px;
        box-shadow: none;
      "">
        F<br>
      </div>
      <div style=""
        text-align: center;
        font-size: 24px;
        opacity: 1;
        border: 2px solid #000;
        border-radius: 8px;
        padding: 20px 15px;
        width: 60px;
        box-shadow: 0 0 10px #333;
      "">
        G<br>
      </div>
      <div style=""
        text-align: center;
        font-size: 24px;
        opacity: 0.3;
        border: 2px solid #999;
        border-radius: 8px;
        padding: 20px 15px;
        width: 60px;
        box-shadow: none;
      "">
        H<br>
      </div>
      <div style=""
        text-align: center;
        font-size: 24px;
        opacity: 1;
        border: 2px solid #000;
        border-radius: 8px;
        padding: 20px 15px;
        width: 60px;
        box-shadow: 0 0 10px #333;
      "">
        J<br>
      </div></div></div>","null","","","","","","","","","","","","","","","","","","",""
"","","","","","html-keyboard-response","67","2.1.0","145650","null","","
    <div style=""text-align: center;"">
      <img src=""static/images/fix_cross.jpg"" style=""width: 400px; height: 400px; margin-bottom: 30px;"">
      <div style=""display: flex; justify-content: center; gap: 40px;"">
      <div style=""
        text-align: center;
        font-size: 24px;
        opacity: 0.3;
        border: 2px solid #999;
        border-radius: 8px;
        padding: 20px 15px;
        width: 60px;
        box-shadow: none;
      "">
        F<br>
      </div>
      <div style=""
        text-align: center;
        font-size: 24px;
        opacity: 1;
        border: 2px solid #000;
        border-radius: 8px;
        padding: 20px 15px;
        width: 60px;
        box-shadow: 0 0 10px #333;
      "">
        G<br>
      </div>
      <div style=""
        text-align: center;
        font-size: 24px;
        opacity: 0.3;
        border: 2px solid #999;
        border-radius: 8px;
        padding: 20px 15px;
        width: 60px;
        box-shadow: none;
      "">
        H<br>
      </div>
      <div style=""
        text-align: center;
        font-size: 24px;
        opacity: 1;
        border: 2px solid #000;
        border-radius: 8px;
        padding: 20px 15px;
        width: 60px;
        box-shadow: 0 0 10px #333;
      "">
        J<br>
      </div></div></div>","null","","","","","","","","","","","","","","","","","","",""
"","","","","","html-keyboard-response","68","2.1.0","146148","497","","
    <div style=""text-align: center;"">
      <img src=""static/images/1.jpg"" style=""width: 400px; height: 400px; margin-bottom: 30px;"">
      <div style=""display: flex; justify-content: center; gap: 40px;"">
      <div style=""
        text-align: center;
        font-size: 24px;
        opacity: 0.3;
        border: 2px solid #999;
        border-radius: 8px;
        padding: 20px 15px;
        width: 60px;
        box-shadow: none;
      "">
        F<br>
      </div>
      <div style=""
        text-align: center;
        font-size: 24px;
        opacity: 1;
        border: 2px solid #000;
        border-radius: 8px;
        padding: 20px 15px;
        width: 60px;
        box-shadow: 0 0 10px #333;
      "">
        G<br>
      </div>
      <div style=""
        text-align: center;
        font-size: 24px;
        opacity: 0.3;
        border: 2px solid #999;
        border-radius: 8px;
        padding: 20px 15px;
        width: 60px;
        box-shadow: none;
      "">
        H<br>
      </div>
      <div style=""
        text-align: center;
        font-size: 24px;
        opacity: 1;
        border: 2px solid #000;
        border-radius: 8px;
        padding: 20px 15px;
        width: 60px;
        box-shadow: 0 0 10px #333;
      "">
        J<br>
      </div></div></div>","g","0","19","training","A3","h","f","g","j","{""A1"":0.93,""A2"":0.27,""A3"":0.73,""A4"":0.07}","1","[""A3"",""A4""]","[""j"",""g""]","1","false","1","0","0","7","2"
"","","","","","html-keyboard-response","69","2.1.0","147149","null","","
    <div style=""text-align: center;"">
      <img src=""static/images/feedback_1.jpg"" style=""width: 400px; height: 400px; margin-bottom: 30px;"">
      <div style=""display: flex; justify-content: center; gap: 40px;"">
      <div style=""
        text-align: center;
        font-size: 24px;
        opacity: 0.3;
        border: 2px solid #999;
        border-radius: 8px;
        padding: 20px 15px;
        width: 60px;
        box-shadow: none;
      "">
        F<br>
      </div>
      <div style=""
        text-align: center;
        font-size: 24px;
        opacity: 1;
        border: 2px solid #000;
        border-radius: 8px;
        padding: 20px 15px;
        width: 60px;
        box-shadow: 0 0 10px #333;
      "">
        G<br>
      </div>
      <div style=""
        text-align: center;
        font-size: 24px;
        opacity: 0.3;
        border: 2px solid #999;
        border-radius: 8px;
        padding: 20px 15px;
        width: 60px;
        box-shadow: none;
      "">
        H<br>
      </div>
      <div style=""
        text-align: center;
        font-size: 24px;
        opacity: 1;
        border: 2px solid #000;
        border-radius: 8px;
        padding: 20px 15px;
        width: 60px;
        box-shadow: 0 0 10px #333;
      "">
        J<br>
      </div></div></div>","null","","","","","","","","","","","","","","","","","","",""
"","","","","","html-keyboard-response","70","2.1.0","147652","null","","
    <div style=""text-align: center;"">
      <img src=""static/images/fix_cross.jpg"" style=""width: 400px; height: 400px; margin-bottom: 30px;"">
      <div style=""display: flex; justify-content: center; gap: 40px;"">
      <div style=""
        text-align: center;
        font-size: 24px;
        opacity: 0.3;
        border: 2px solid #999;
        border-radius: 8px;
        padding: 20px 15px;
        width: 60px;
        box-shadow: none;
      "">
        F<br>
      </div>
      <div style=""
        text-align: center;
        font-size: 24px;
        opacity: 1;
        border: 2px solid #000;
        border-radius: 8px;
        padding: 20px 15px;
        width: 60px;
        box-shadow: 0 0 10px #333;
      "">
        G<br>
      </div>
      <div style=""
        text-align: center;
        font-size: 24px;
        opacity: 0.3;
        border: 2px solid #999;
        border-radius: 8px;
        padding: 20px 15px;
        width: 60px;
        box-shadow: none;
      "">
        H<br>
      </div>
      <div style=""
        text-align: center;
        font-size: 24px;
        opacity: 1;
        border: 2px solid #000;
        border-radius: 8px;
        padding: 20px 15px;
        width: 60px;
        box-shadow: 0 0 10px #333;
      "">
        J<br>
      </div></div></div>","null","","","","","","","","","","","","","","","","","","",""
"","","","","","html-keyboard-response","71","2.1.0","148121","468","","
    <div style=""text-align: center;"">
      <img src=""static/images/1.jpg"" style=""width: 400px; height: 400px; margin-bottom: 30px;"">
      <div style=""display: flex; justify-content: center; gap: 40px;"">
      <div style=""
        text-align: center;
        font-size: 24px;
        opacity: 0.3;
        border: 2px solid #999;
        border-radius: 8px;
        padding: 20px 15px;
        width: 60px;
