"success","timeout","failed_images","failed_audio","failed_video","trial_type","trial_index","plugin_version","time_elapsed","rt","stimulus","response","block","n_force_rep","phase","image","action","key_action_mapping","reward_probs","condition","reward","trial","subset","available_keys"
"true","false","[]","[]","[]","preload","0","2.1.0","2","","","","","","","","","","","","","","",""
"true","","","","","fullscreen","1","2.1.0","1483","1378","","","","","","","","","","","","","",""
"","","","","","html-keyboard-response","2","2.1.0","3022","1538","<p style=""text-align: center; line-height: 1.6em""><h3>Instruction 1/5</h3>In this experiment, you will see a series of images on the screen.<br/>You can respond to each image by pressing one of the following buttons on the keyboard:<br/><br/><div style=""display: flex; justify-content: center; gap: 40px;"">
      <div style=""
        text-align: center;
        font-size: 24px;
        opacity: 1;
        border: 2px solid #000;
        border-radius: 8px;
        padding: 20px 15px;
        width: 60px;
        box-shadow: 0 0 10px #333;
      "">
        F<br>
      </div>
      <div style=""
        text-align: center;
        font-size: 24px;
        opacity: 1;
        border: 2px solid #000;
        border-radius: 8px;
        padding: 20px 15px;
        width: 60px;
        box-shadow: 0 0 10px #333;
      "">
        G<br>
      </div>
      <div style=""
        text-align: center;
        font-size: 24px;
        opacity: 1;
        border: 2px solid #000;
        border-radius: 8px;
        padding: 20px 15px;
        width: 60px;
        box-shadow: 0 0 10px #333;
      "">
        H<br>
      </div>
      <div style=""
        text-align: center;
        font-size: 24px;
        opacity: 1;
        border: 2px solid #000;
        border-radius: 8px;
        padding: 20px 15px;
        width: 60px;
        box-shadow: 0 0 10px #333;
      "">
        J<br>
      </div></div></div></p></div><p class=""continue"">[Press SPACE to continue]</p>"," ","","","","","","","","","","","",""
"","","","","","html-keyboard-response","3","2.1.0","226226","223203","<p style=""text-align: center; line-height: 1.6em""><h3>Instruction 2/5</h3>Pressing a button in response to an image can give you <span style=""color:red;"">0</span> or <span style=""color:green;"">+1</span> points<br/>The probability of receiving <span style=""color:red;"">0</span> or <span style=""color:green;"">+1</span> points differs for each button and each image.<br/>Your goal is to collect as many points as possible.<br/></p></div><p class=""continue"">[Press SPACE to continue]</p>"," ","","","","","","","","","","","",""
"","","","","","html-keyboard-response","4","2.1.0","234307","8080","<p style=""text-align: center; line-height: 1.6em""><h3>Instruction 3/5</h3>Each trial will first show a fixation cross. Please focus on this.<br/>When the image is shown, you have two seconds to respond.<br/></p></div><p class=""continue"">[Press SPACE to continue]</p>"," ","","","","","","","","","","","",""
"","","","","","html-keyboard-response","5","2.1.0","237978","3669","<p style=""text-align: center; line-height: 1.6em""><h3>Instruction 4/5</h3>Not all four actions might be available to you at a given time.<br/>This will be indicated to you.</p></div><p class=""continue"">[Press SPACE to continue]</p>"," ","","","","","","","","","","","",""
"","","","","","html-keyboard-response","6","2.1.0","239084","1105","<p style=""text-align: center; line-height: 1.6em""><h3>Instruction 5/5</h3>There will be 12 images, each of which will be presented repeatedly.<br/>To respond, please use your dominant with one finger on each button at all times.<br/>You will now start the main experiment.<br/></p></div><p class=""continue"">[Press SPACE to continue]</p>"," ","","","","","","","","","","","",""
"","","","","","html-keyboard-response","7","2.1.0","243023","3937","<h3>Image 1</h3>For the next trials, only single actions will be available.</p></div><p class=""continue"">[Press SPACE to continue]</p>"," ","","","","","","","","","","","",""
"","","","","","html-keyboard-response","8","2.1.0","243526","null","
    <div style=""text-align: center;"">
      <img src=""static/images/fix_cross.jpg"" style=""width: 400px; height: 400px; margin-bottom: 30px;"">
      <div style=""display: flex; justify-content: center; gap: 40px;"">
      <div style=""
        text-align: center;
        font-size: 24px;
        opacity: 0.3;
        border: 2px solid #999;
        border-radius: 8px;
        padding: 20px 15px;
        width: 60px;
        box-shadow: none;
      "">
        F<br>
      </div>
      <div style=""
        text-align: center;
        font-size: 24px;
        opacity: 1;
        border: 2px solid #000;
        border-radius: 8px;
        padding: 20px 15px;
        width: 60px;
        box-shadow: 0 0 10px #333;
      "">
        G<br>
      </div>
      <div style=""
        text-align: center;
        font-size: 24px;
        opacity: 0.3;
        border: 2px solid #999;
        border-radius: 8px;
        padding: 20px 15px;
        width: 60px;
        box-shadow: none;
      "">
        H<br>
      </div>
      <div style=""
        text-align: center;
        font-size: 24px;
        opacity: 0.3;
        border: 2px solid #999;
        border-radius: 8px;
        padding: 20px 15px;
        width: 60px;
        box-shadow: none;
      "">
        J<br>
      </div></div></div>","null","","","","","","","","","","","",""
"","","","","","html-keyboard-response","9","2.1.0","244083","554","
    <div style=""text-align: center;"">
      <img src=""static/images/7.jpg"" style=""width: 400px; height: 400px; margin-bottom: 30px;"">
      <div style=""display: flex; justify-content: center; gap: 40px;"">
      <div style=""
        text-align: center;
        font-size: 24px;
        opacity: 0.3;
        border: 2px solid #999;
        border-radius: 8px;
        padding: 20px 15px;
        width: 60px;
        box-shadow: none;
      "">
        F<br>
      </div>
      <div style=""
        text-align: center;
        font-size: 24px;
        opacity: 1;
        border: 2px solid #000;
        border-radius: 8px;
        padding: 20px 15px;
        width: 60px;
        box-shadow: 0 0 10px #333;
      "">
        G<br>
      </div>
      <div style=""
        text-align: center;
        font-size: 24px;
        opacity: 0.3;
        border: 2px solid #999;
        border-radius: 8px;
        padding: 20px 15px;
        width: 60px;
        box-shadow: none;
      "">
        H<br>
      </div>
      <div style=""
        text-align: center;
        font-size: 24px;
        opacity: 0.3;
        border: 2px solid #999;
        border-radius: 8px;
        padding: 20px 15px;
        width: 60px;
        box-shadow: none;
      "">
        J<br>
      </div></div></div>","g","5","0","fc","7","A4","{""A1"":""h"",""A3"":""j"",""A2"":""f"",""A4"":""g""}","{""A1"":0.8,""A2"":0.2,""A3"":0.5,""A4"":0.1}","Condition 1","0","","",""
"","","","","","html-keyboard-response","10","2.1.0","245086","null","<p style='color:gray; font-size: 48px;'>0</p>","null","","","","","","","","","","","",""
"","","","","","html-keyboard-response","11","2.1.0","245590","null","
    <div style=""text-align: center;"">
      <img src=""static/images/fix_cross.jpg"" style=""width: 400px; height: 400px; margin-bottom: 30px;"">
      <div style=""display: flex; justify-content: center; gap: 40px;"">
      <div style=""
        text-align: center;
        font-size: 24px;
        opacity: 0.3;
        border: 2px solid #999;
        border-radius: 8px;
        padding: 20px 15px;
        width: 60px;
        box-shadow: none;
      "">
        F<br>
      </div>
      <div style=""
        text-align: center;
        font-size: 24px;
        opacity: 1;
        border: 2px solid #000;
        border-radius: 8px;
        padding: 20px 15px;
        width: 60px;
        box-shadow: 0 0 10px #333;
      "">
        G<br>
      </div>
      <div style=""
        text-align: center;
        font-size: 24px;
        opacity: 0.3;
        border: 2px solid #999;
        border-radius: 8px;
        padding: 20px 15px;
        width: 60px;
        box-shadow: none;
      "">
        H<br>
      </div>
      <div style=""
        text-align: center;
        font-size: 24px;
        opacity: 0.3;
        border: 2px solid #999;
        border-radius: 8px;
        padding: 20px 15px;
        width: 60px;
        box-shadow: none;
      "">
        J<br>
      </div></div></div>","null","","","","","","","","","","","",""
"","","","","","html-keyboard-response","12","2.1.0","245989","397","
    <div style=""text-align: center;"">
      <img src=""static/images/7.jpg"" style=""width: 400px; height: 400px; margin-bottom: 30px;"">
      <div style=""display: flex; justify-content: center; gap: 40px;"">
      <div style=""
        text-align: center;
        font-size: 24px;
        opacity: 0.3;
        border: 2px solid #999;
        border-radius: 8px;
        padding: 20px 15px;
        width: 60px;
        box-shadow: none;
      "">
        F<br>
      </div>
      <div style=""
        text-align: center;
        font-size: 24px;
        opacity: 1;
        border: 2px solid #000;
        border-radius: 8px;
        padding: 20px 15px;
        width: 60px;
        box-shadow: 0 0 10px #333;
      "">
        G<br>
      </div>
      <div style=""
        text-align: center;
        font-size: 24px;
        opacity: 0.3;
        border: 2px solid #999;
        border-radius: 8px;
        padding: 20px 15px;
        width: 60px;
        box-shadow: none;
      "">
        H<br>
      </div>
      <div style=""
        text-align: center;
        font-size: 24px;
        opacity: 0.3;
        border: 2px solid #999;
        border-radius: 8px;
        padding: 20px 15px;
        width: 60px;
        box-shadow: none;
      "">
        J<br>
      </div></div></div>","g","5","1","fc","7","A4","{""A1"":""h"",""A3"":""j"",""A2"":""f"",""A4"":""g""}","{""A1"":0.8,""A2"":0.2,""A3"":0.5,""A4"":0.1}","Condition 1","1","","",""
"","","","","","html-keyboard-response","13","2.1.0","246993","null","<p style='color:green; font-size: 48px;'>+1</p>","null","","","","","","","","","","","",""
"","","","","","html-keyboard-response","14","2.1.0","247497","null","
    <div style=""text-align: center;"">
      <img src=""static/images/fix_cross.jpg"" style=""width: 400px; height: 400px; margin-bottom: 30px;"">
      <div style=""display: flex; justify-content: center; gap: 40px;"">
      <div style=""
        text-align: center;
        font-size: 24px;
        opacity: 0.3;
        border: 2px solid #999;
        border-radius: 8px;
        padding: 20px 15px;
        width: 60px;
        box-shadow: none;
      "">
        F<br>
      </div>
      <div style=""
        text-align: center;
        font-size: 24px;
        opacity: 1;
        border: 2px solid #000;
        border-radius: 8px;
        padding: 20px 15px;
        width: 60px;
        box-shadow: 0 0 10px #333;
      "">
        G<br>
      </div>
      <div style=""
        text-align: center;
        font-size: 24px;
        opacity: 0.3;
        border: 2px solid #999;
        border-radius: 8px;
        padding: 20px 15px;
        width: 60px;
        box-shadow: none;
      "">
        H<br>
      </div>
      <div style=""
        text-align: center;
        font-size: 24px;
        opacity: 0.3;
        border: 2px solid #999;
        border-radius: 8px;
        padding: 20px 15px;
        width: 60px;
        box-shadow: none;
      "">
        J<br>
      </div></div></div>","null","","","","","","","","","","","",""
"","","","","","html-keyboard-response","15","2.1.0","247866","367","
    <div style=""text-align: center;"">
      <img src=""static/images/7.jpg"" style=""width: 400px; height: 400px; margin-bottom: 30px;"">
      <div style=""display: flex; justify-content: center; gap: 40px;"">
      <div style=""
        text-align: center;
        font-size: 24px;
        opacity: 0.3;
        border: 2px solid #999;
        border-radius: 8px;
        padding: 20px 15px;
        width: 60px;
        box-shadow: none;
      "">
        F<br>
      </div>
      <div style=""
        text-align: center;
        font-size: 24px;
        opacity: 1;
        border: 2px solid #000;
        border-radius: 8px;
        padding: 20px 15px;
        width: 60px;
        box-shadow: 0 0 10px #333;
      "">
        G<br>
      </div>
      <div style=""
        text-align: center;
        font-size: 24px;
        opacity: 0.3;
        border: 2px solid #999;
        border-radius: 8px;
        padding: 20px 15px;
        width: 60px;
        box-shadow: none;
      "">
        H<br>
      </div>
      <div style=""
        text-align: center;
        font-size: 24px;
        opacity: 0.3;
        border: 2px solid #999;
        border-radius: 8px;
        padding: 20px 15px;
        width: 60px;
        box-shadow: none;
      "">
        J<br>
      </div></div></div>","g","5","2","fc","7","A4","{""A1"":""h"",""A3"":""j"",""A2"":""f"",""A4"":""g""}","{""A1"":0.8,""A2"":0.2,""A3"":0.5,""A4"":0.1}","Condition 1","0","","",""
"","","","","","html-keyboard-response","16","2.1.0","248868","null","<p style='color:gray; font-size: 48px;'>0</p>","null","","","","","","","","","","","",""
"","","","","","html-keyboard-response","17","2.1.0","249373","null","
    <div style=""text-align: center;"">
      <img src=""static/images/fix_cross.jpg"" style=""width: 400px; height: 400px; margin-bottom: 30px;"">
      <div style=""display: flex; justify-content: center; gap: 40px;"">
      <div style=""
        text-align: center;
        font-size: 24px;
        opacity: 0.3;
        border: 2px solid #999;
        border-radius: 8px;
        padding: 20px 15px;
        width: 60px;
        box-shadow: none;
      "">
        F<br>
      </div>
      <div style=""
        text-align: center;
        font-size: 24px;
        opacity: 1;
        border: 2px solid #000;
        border-radius: 8px;
        padding: 20px 15px;
        width: 60px;
        box-shadow: 0 0 10px #333;
      "">
        G<br>
      </div>
      <div style=""
        text-align: center;
        font-size: 24px;
        opacity: 0.3;
        border: 2px solid #999;
        border-radius: 8px;
        padding: 20px 15px;
        width: 60px;
        box-shadow: none;
      "">
        H<br>
      </div>
      <div style=""
        text-align: center;
        font-size: 24px;
        opacity: 0.3;
        border: 2px solid #999;
        border-radius: 8px;
        padding: 20px 15px;
        width: 60px;
        box-shadow: none;
      "">
        J<br>
      </div></div></div>","null","","","","","","","","","","","",""
"","","","","","html-keyboard-response","18","2.1.0","249681","306","
    <div style=""text-align: center;"">
      <img src=""static/images/7.jpg"" style=""width: 400px; height: 400px; margin-bottom: 30px;"">
      <div style=""display: flex; justify-content: center; gap: 40px;"">
      <div style=""
        text-align: center;
        font-size: 24px;
        opacity: 0.3;
        border: 2px solid #999;
        border-radius: 8px;
        padding: 20px 15px;
        width: 60px;
        box-shadow: none;
      "">
        F<br>
      </div>
      <div style=""
        text-align: center;
        font-size: 24px;
        opacity: 1;
        border: 2px solid #000;
        border-radius: 8px;
        padding: 20px 15px;
        width: 60px;
        box-shadow: 0 0 10px #333;
      "">
        G<br>
      </div>
      <div style=""
        text-align: center;
        font-size: 24px;
        opacity: 0.3;
        border: 2px solid #999;
        border-radius: 8px;
        padding: 20px 15px;
        width: 60px;
        box-shadow: none;
      "">
        H<br>
      </div>
      <div style=""
        text-align: center;
        font-size: 24px;
        opacity: 0.3;
        border: 2px solid #999;
        border-radius: 8px;
        padding: 20px 15px;
        width: 60px;
        box-shadow: none;
      "">
        J<br>
      </div></div></div>","g","5","3","fc","7","A4","{""A1"":""h"",""A3"":""j"",""A2"":""f"",""A4"":""g""}","{""A1"":0.8,""A2"":0.2,""A3"":0.5,""A4"":0.1}","Condition 1","0","","",""
"","","","","","html-keyboard-response","19","2.1.0","250684","null","<p style='color:gray; font-size: 48px;'>0</p>","null","","","","","","","","","","","",""
"","","","","","html-keyboard-response","20","2.1.0","251187","null","
    <div style=""text-align: center;"">
      <img src=""static/images/fix_cross.jpg"" style=""width: 400px; height: 400px; margin-bottom: 30px;"">
      <div style=""display: flex; justify-content: center; gap: 40px;"">
      <div style=""
        text-align: center;
        font-size: 24px;
        opacity: 0.3;
        border: 2px solid #999;
        border-radius: 8px;
        padding: 20px 15px;
        width: 60px;
        box-shadow: none;
      "">
        F<br>
      </div>
      <div style=""
        text-align: center;
        font-size: 24px;
        opacity: 1;
        border: 2px solid #000;
        border-radius: 8px;
        padding: 20px 15px;
        width: 60px;
        box-shadow: 0 0 10px #333;
      "">
        G<br>
      </div>
      <div style=""
        text-align: center;
        font-size: 24px;
        opacity: 0.3;
        border: 2px solid #999;
        border-radius: 8px;
        padding: 20px 15px;
        width: 60px;
        box-shadow: none;
      "">
        H<br>
      </div>
      <div style=""
        text-align: center;
        font-size: 24px;
        opacity: 0.3;
        border: 2px solid #999;
        border-radius: 8px;
        padding: 20px 15px;
        width: 60px;
        box-shadow: none;
      "">
        J<br>
      </div></div></div>","null","","","","","","","","","","","",""
"","","","","","html-keyboard-response","21","2.1.0","252226","1037","
    <div style=""text-align: center;"">
      <img src=""static/images/7.jpg"" style=""width: 400px; height: 400px; margin-bottom: 30px;"">
      <div style=""display: flex; justify-content: center; gap: 40px;"">
      <div style=""
        text-align: center;
        font-size: 24px;
        opacity: 0.3;
        border: 2px solid #999;
        border-radius: 8px;
        padding: 20px 15px;
        width: 60px;
        box-shadow: none;
      "">
        F<br>
      </div>
      <div style=""
        text-align: center;
        font-size: 24px;
        opacity: 1;
        border: 2px solid #000;
        border-radius: 8px;
        padding: 20px 15px;
        width: 60px;
        box-shadow: 0 0 10px #333;
      "">
        G<br>
      </div>
      <div style=""
        text-align: center;
        font-size: 24px;
        opacity: 0.3;
        border: 2px solid #999;
        border-radius: 8px;
        padding: 20px 15px;
        width: 60px;
        box-shadow: none;
      "">
        H<br>
      </div>
      <div style=""
        text-align: center;
        font-size: 24px;
        opacity: 0.3;
        border: 2px solid #999;
        border-radius: 8px;
        padding: 20px 15px;
        width: 60px;
        box-shadow: none;
      "">
        J<br>
      </div></div></div>","g","5","4","fc","7","A4","{""A1"":""h"",""A3"":""j"",""A2"":""f"",""A4"":""g""}","{""A1"":0.8,""A2"":0.2,""A3"":0.5,""A4"":0.1}","Condition 1","0","","",""
"","","","","","html-keyboard-response","22","2.1.0","253229","null","<p style='color:gray; font-size: 48px;'>0</p>","null","","","","","","","","","","","",""
"","","","","","html-keyboard-response","23","2.1.0","253733","null","
    <div style=""text-align: center;"">
      <img src=""static/images/fix_cross.jpg"" style=""width: 400px; height: 400px; margin-bottom: 30px;"">
      <div style=""display: flex; justify-content: center; gap: 40px;"">
      <div style=""
        text-align: center;
        font-size: 24px;
        opacity: 0.3;
        border: 2px solid #999;
        border-radius: 8px;
        padding: 20px 15px;
        width: 60px;
        box-shadow: none;
      "">
        F<br>
      </div>
      <div style=""
        text-align: center;
        font-size: 24px;
        opacity: 0.3;
        border: 2px solid #999;
        border-radius: 8px;
        padding: 20px 15px;
        width: 60px;
        box-shadow: none;
      "">
        G<br>
      </div>
      <div style=""
        text-align: center;
        font-size: 24px;
        opacity: 1;
        border: 2px solid #000;
        border-radius: 8px;
        padding: 20px 15px;
        width: 60px;
        box-shadow: 0 0 10px #333;
      "">
        H<br>
      </div>
      <div style=""
        text-align: center;
        font-size: 24px;
        opacity: 0.3;
        border: 2px solid #999;
        border-radius: 8px;
        padding: 20px 15px;
        width: 60px;
        box-shadow: none;
      "">
        J<br>
      </div></div></div>","null","","","","","","","","","","","",""
"","","","","","html-keyboard-response","24","2.1.0","254702","967","
    <div style=""text-align: center;"">
      <img src=""static/images/7.jpg"" style=""width: 400px; height: 400px; margin-bottom: 30px;"">
      <div style=""display: flex; justify-content: center; gap: 40px;"">
      <div style=""
        text-align: center;
        font-size: 24px;
        opacity: 0.3;
        border: 2px solid #999;
        border-radius: 8px;
        padding: 20px 15px;
        width: 60px;
        box-shadow: none;
      "">
        F<br>
      </div>
      <div style=""
        text-align: center;
        font-size: 24px;
        opacity: 0.3;
        border: 2px solid #999;
        border-radius: 8px;
        padding: 20px 15px;
        width: 60px;
        box-shadow: none;
      "">
        G<br>
      </div>
      <div style=""
        text-align: center;
        font-size: 24px;
        opacity: 1;
        border: 2px solid #000;
        border-radius: 8px;
        padding: 20px 15px;
        width: 60px;
        box-shadow: 0 0 10px #333;
      "">
        H<br>
      </div>
      <div style=""
        text-align: center;
        font-size: 24px;
        opacity: 0.3;
        border: 2px solid #999;
        border-radius: 8px;
        padding: 20px 15px;
        width: 60px;
        box-shadow: none;
      "">
        J<br>
      </div></div></div>","h","5","0","fc","7","A1","{""A1"":""h"",""A3"":""j"",""A2"":""f"",""A4"":""g""}","{""A1"":0.8,""A2"":0.2,""A3"":0.5,""A4"":0.1}","Condition 1","1","","",""
"","","","","","html-keyboard-response","25","2.1.0","255705","null","<p style='color:green; font-size: 48px;'>+1</p>","null","","","","","","","","","","","",""
"","","","","","html-keyboard-response","26","2.1.0","256208","null","
    <div style=""text-align: center;"">
      <img src=""static/images/fix_cross.jpg"" style=""width: 400px; height: 400px; margin-bottom: 30px;"">
      <div style=""display: flex; justify-content: center; gap: 40px;"">
      <div style=""
        text-align: center;
        font-size: 24px;
        opacity: 0.3;
        border: 2px solid #999;
        border-radius: 8px;
        padding: 20px 15px;
        width: 60px;
        box-shadow: none;
      "">
        F<br>
      </div>
      <div style=""
        text-align: center;
        font-size: 24px;
        opacity: 0.3;
        border: 2px solid #999;
        border-radius: 8px;
        padding: 20px 15px;
        width: 60px;
        box-shadow: none;
      "">
        G<br>
      </div>
      <div style=""
        text-align: center;
        font-size: 24px;
        opacity: 1;
        border: 2px solid #000;
        border-radius: 8px;
        padding: 20px 15px;
        width: 60px;
        box-shadow: 0 0 10px #333;
      "">
        H<br>
      </div>
      <div style=""
        text-align: center;
        font-size: 24px;
        opacity: 0.3;
        border: 2px solid #999;
        border-radius: 8px;
        padding: 20px 15px;
        width: 60px;
        box-shadow: none;
      "">
        J<br>
      </div></div></div>","null","","","","","","","","","","","",""
"","","","","","html-keyboard-response","27","2.1.0","256687","477","
    <div style=""text-align: center;"">
      <img src=""static/images/7.jpg"" style=""width: 400px; height: 400px; margin-bottom: 30px;"">
      <div style=""display: flex; justify-content: center; gap: 40px;"">
      <div style=""
        text-align: center;
        font-size: 24px;
        opacity: 0.3;
        border: 2px solid #999;
        border-radius: 8px;
        padding: 20px 15px;
        width: 60px;
        box-shadow: none;
      "">
        F<br>
      </div>
      <div style=""
        text-align: center;
        font-size: 24px;
        opacity: 0.3;
        border: 2px solid #999;
        border-radius: 8px;
        padding: 20px 15px;
        width: 60px;
        box-shadow: none;
      "">
        G<br>
      </div>
      <div style=""
        text-align: center;
        font-size: 24px;
        opacity: 1;
        border: 2px solid #000;
        border-radius: 8px;
        padding: 20px 15px;
        width: 60px;
        box-shadow: 0 0 10px #333;
      "">
        H<br>
      </div>
      <div style=""
        text-align: center;
        font-size: 24px;
        opacity: 0.3;
        border: 2px solid #999;
        border-radius: 8px;
        padding: 20px 15px;
        width: 60px;
        box-shadow: none;
      "">
        J<br>
      </div></div></div>","h","5","1","fc","7","A1","{""A1"":""h"",""A3"":""j"",""A2"":""f"",""A4"":""g""}","{""A1"":0.8,""A2"":0.2,""A3"":0.5,""A4"":0.1}","Condition 1","1","","",""
"","","","","","html-keyboard-response","28","2.1.0","257689","null","<p style='color:green; font-size: 48px;'>+1</p>","null","","","","","","","","","","","",""
"","","","","","html-keyboard-response","29","2.1.0","258192","null","
    <div style=""text-align: center;"">
      <img src=""static/images/fix_cross.jpg"" style=""width: 400px; height: 400px; margin-bottom: 30px;"">
      <div style=""display: flex; justify-content: center; gap: 40px;"">
      <div style=""
        text-align: center;
        font-size: 24px;
        opacity: 0.3;
        border: 2px solid #999;
        border-radius: 8px;
        padding: 20px 15px;
        width: 60px;
        box-shadow: none;
      "">
        F<br>
      </div>
      <div style=""
        text-align: center;
        font-size: 24px;
        opacity: 0.3;
        border: 2px solid #999;
        border-radius: 8px;
        padding: 20px 15px;
        width: 60px;
        box-shadow: none;
      "">
        G<br>
      </div>
      <div style=""
        text-align: center;
        font-size: 24px;
        opacity: 1;
        border: 2px solid #000;
        border-radius: 8px;
        padding: 20px 15px;
        width: 60px;
        box-shadow: 0 0 10px #333;
      "">
        H<br>
      </div>
      <div style=""
        text-align: center;
        font-size: 24px;
        opacity: 0.3;
        border: 2px solid #999;
        border-radius: 8px;
        padding: 20px 15px;
        width: 60px;
        box-shadow: none;
      "">
        J<br>
      </div></div></div>","null","","","","","","","","","","","",""
"","","","","","html-keyboard-response","30","2.1.0","258942","748","
    <div style=""text-align: center;"">
      <img src=""static/images/7.jpg"" style=""width: 400px; height: 400px; margin-bottom: 30px;"">
      <div style=""display: flex; justify-content: center; gap: 40px;"">
      <div style=""
        text-align: center;
        font-size: 24px;
        opacity: 0.3;
        border: 2px solid #999;
        border-radius: 8px;
        padding: 20px 15px;
        width: 60px;
        box-shadow: none;
      "">
        F<br>
      </div>
      <div style=""
        text-align: center;
        font-size: 24px;
        opacity: 0.3;
        border: 2px solid #999;
        border-radius: 8px;
        padding: 20px 15px;
        width: 60px;
        box-shadow: none;
      "">
        G<br>
      </div>
      <div style=""
        text-align: center;
        font-size: 24px;
        opacity: 1;
        border: 2px solid #000;
        border-radius: 8px;
        padding: 20px 15px;
        width: 60px;
        box-shadow: 0 0 10px #333;
      "">
        H<br>
      </div>
      <div style=""
        text-align: center;
        font-size: 24px;
        opacity: 0.3;
        border: 2px solid #999;
        border-radius: 8px;
        padding: 20px 15px;
        width: 60px;
        box-shadow: none;
      "">
        J<br>
      </div></div></div>","h","5","2","fc","7","A1","{""A1"":""h"",""A3"":""j"",""A2"":""f"",""A4"":""g""}","{""A1"":0.8,""A2"":0.2,""A3"":0.5,""A4"":0.1}","Condition 1","1","","",""
"","","","","","html-keyboard-response","31","2.1.0","259945","null","<p style='color:green; font-size: 48px;'>+1</p>","null","","","","","","","","","","","",""
"","","","","","html-keyboard-response","32","2.1.0","260448","null","
    <div style=""text-align: center;"">
      <img src=""static/images/fix_cross.jpg"" style=""width: 400px; height: 400px; margin-bottom: 30px;"">
      <div style=""display: flex; justify-content: center; gap: 40px;"">
      <div style=""
        text-align: center;
        font-size: 24px;
        opacity: 0.3;
        border: 2px solid #999;
        border-radius: 8px;
        padding: 20px 15px;
        width: 60px;
        box-shadow: none;
      "">
        F<br>
      </div>
      <div style=""
        text-align: center;
        font-size: 24px;
        opacity: 0.3;
        border: 2px solid #999;
        border-radius: 8px;
        padding: 20px 15px;
        width: 60px;
        box-shadow: none;
      "">
        G<br>
      </div>
      <div style=""
        text-align: center;
        font-size: 24px;
        opacity: 1;
        border: 2px solid #000;
        border-radius: 8px;
        padding: 20px 15px;
        width: 60px;
        box-shadow: 0 0 10px #333;
      "">
        H<br>
      </div>
      <div style=""
        text-align: center;
        font-size: 24px;
        opacity: 0.3;
        border: 2px solid #999;
        border-radius: 8px;
        padding: 20px 15px;
        width: 60px;
        box-shadow: none;
      "">
        J<br>
      </div></div></div>","null","","","","","","","","","","","",""
"","","","","","html-keyboard-response","33","2.1.0","261047","597","
    <div style=""text-align: center;"">
      <img src=""static/images/7.jpg"" style=""width: 400px; height: 400px; margin-bottom: 30px;"">
      <div style=""display: flex; justify-content: center; gap: 40px;"">
      <div style=""
        text-align: center;
        font-size: 24px;
        opacity: 0.3;
        border: 2px solid #999;
        border-radius: 8px;
        padding: 20px 15px;
        width: 60px;
        box-shadow: none;
      "">
        F<br>
      </div>
      <div style=""
        text-align: center;
        font-size: 24px;
        opacity: 0.3;
        border: 2px solid #999;
        border-radius: 8px;
        padding: 20px 15px;
        width: 60px;
        box-shadow: none;
      "">
        G<br>
      </div>
      <div style=""
        text-align: center;
        font-size: 24px;
        opacity: 1;
        border: 2px solid #000;
        border-radius: 8px;
        padding: 20px 15px;
        width: 60px;
        box-shadow: 0 0 10px #333;
      "">
        H<br>
      </div>
      <div style=""
        text-align: center;
        font-size: 24px;
        opacity: 0.3;
        border: 2px solid #999;
        border-radius: 8px;
        padding: 20px 15px;
        width: 60px;
        box-shadow: none;
      "">
        J<br>
      </div></div></div>","h","5","3","fc","7","A1","{""A1"":""h"",""A3"":""j"",""A2"":""f"",""A4"":""g""}","{""A1"":0.8,""A2"":0.2,""A3"":0.5,""A4"":0.1}","Condition 1","1","","",""
"","","","","","html-keyboard-response","34","2.1.0","262050","null","<p style='color:green; font-size: 48px;'>+1</p>","null","","","","","","","","","","","",""
"","","","","","html-keyboard-response","35","2.1.0","262554","null","
    <div style=""text-align: center;"">
      <img src=""static/images/fix_cross.jpg"" style=""width: 400px; height: 400px; margin-bottom: 30px;"">
      <div style=""display: flex; justify-content: center; gap: 40px;"">
      <div style=""
        text-align: center;
        font-size: 24px;
        opacity: 0.3;
        border: 2px solid #999;
        border-radius: 8px;
        padding: 20px 15px;
        width: 60px;
        box-shadow: none;
      "">
        F<br>
      </div>
      <div style=""
        text-align: center;
        font-size: 24px;
        opacity: 0.3;
        border: 2px solid #999;
        border-radius: 8px;
        padding: 20px 15px;
        width: 60px;
        box-shadow: none;
      "">
        G<br>
      </div>
      <div style=""
        text-align: center;
        font-size: 24px;
        opacity: 1;
        border: 2px solid #000;
        border-radius: 8px;
        padding: 20px 15px;
        width: 60px;
        box-shadow: 0 0 10px #333;
      "">
        H<br>
      </div>
      <div style=""
        text-align: center;
        font-size: 24px;
        opacity: 0.3;
        border: 2px solid #999;
        border-radius: 8px;
        padding: 20px 15px;
        width: 60px;
        box-shadow: none;
      "">
        J<br>
      </div></div></div>","null","","","","","","","","","","","",""
"","","","","","html-keyboard-response","36","2.1.0","262855","299","
    <div style=""text-align: center;"">
      <img src=""static/images/7.jpg"" style=""width: 400px; height: 400px; margin-bottom: 30px;"">
      <div style=""display: flex; justify-content: center; gap: 40px;"">
      <div style=""
        text-align: center;
        font-size: 24px;
        opacity: 0.3;
        border: 2px solid #999;
        border-radius: 8px;
        padding: 20px 15px;
        width: 60px;
        box-shadow: none;
      "">
        F<br>
      </div>
      <div style=""
        text-align: center;
        font-size: 24px;
        opacity: 0.3;
        border: 2px solid #999;
        border-radius: 8px;
        padding: 20px 15px;
        width: 60px;
        box-shadow: none;
      "">
        G<br>
      </div>
      <div style=""
        text-align: center;
        font-size: 24px;
        opacity: 1;
        border: 2px solid #000;
        border-radius: 8px;
        padding: 20px 15px;
        width: 60px;
        box-shadow: 0 0 10px #333;
      "">
        H<br>
      </div>
      <div style=""
        text-align: center;
        font-size: 24px;
        opacity: 0.3;
        border: 2px solid #999;
        border-radius: 8px;
        padding: 20px 15px;
        width: 60px;
        box-shadow: none;
      "">
        J<br>
      </div></div></div>","h","5","4","fc","7","A1","{""A1"":""h"",""A3"":""j"",""A2"":""f"",""A4"":""g""}","{""A1"":0.8,""A2"":0.2,""A3"":0.5,""A4"":0.1}","Condition 1","0","","",""
"","","","","","html-keyboard-response","37","2.1.0","263858","null","<p style='color:gray; font-size: 48px;'>0</p>","null","","","","","","","","","","","",""
"","","","","","html-keyboard-response","38","2.1.0","264361","null","
    <div style=""text-align: center;"">
      <img src=""static/images/fix_cross.jpg"" style=""width: 400px; height: 400px; margin-bottom: 30px;"">
      <div style=""display: flex; justify-content: center; gap: 40px;"">
      <div style=""
        text-align: center;
        font-size: 24px;
        opacity: 1;
        border: 2px solid #000;
        border-radius: 8px;
        padding: 20px 15px;
        width: 60px;
        box-shadow: 0 0 10px #333;
      "">
        F<br>
      </div>
      <div style=""
        text-align: center;
        font-size: 24px;
        opacity: 0.3;
        border: 2px solid #999;
        border-radius: 8px;
        padding: 20px 15px;
        width: 60px;
        box-shadow: none;
      "">
        G<br>
      </div>
      <div style=""
        text-align: center;
        font-size: 24px;
        opacity: 0.3;
        border: 2px solid #999;
        border-radius: 8px;
        padding: 20px 15px;
        width: 60px;
        box-shadow: none;
      "">
        H<br>
      </div>
      <div style=""
        text-align: center;
        font-size: 24px;
        opacity: 0.3;
        border: 2px solid #999;
        border-radius: 8px;
        padding: 20px 15px;
        width: 60px;
        box-shadow: none;
      "">
        J<br>
      </div></div></div>","null","","","","","","","","","","","",""
"","","","","","html-keyboard-response","39","2.1.0","264820","457","
    <div style=""text-align: center;"">
      <img src=""static/images/7.jpg"" style=""width: 400px; height: 400px; margin-bottom: 30px;"">
      <div style=""display: flex; justify-content: center; gap: 40px;"">
      <div style=""
        text-align: center;
        font-size: 24px;
        opacity: 1;
        border: 2px solid #000;
        border-radius: 8px;
        padding: 20px 15px;
        width: 60px;
        box-shadow: 0 0 10px #333;
      "">
        F<br>
      </div>
      <div style=""
        text-align: center;
        font-size: 24px;
        opacity: 0.3;
        border: 2px solid #999;
        border-radius: 8px;
        padding: 20px 15px;
        width: 60px;
        box-shadow: none;
      "">
        G<br>
      </div>
      <div style=""
        text-align: center;
        font-size: 24px;
        opacity: 0.3;
        border: 2px solid #999;
        border-radius: 8px;
        padding: 20px 15px;
        width: 60px;
        box-shadow: none;
      "">
        H<br>
      </div>
      <div style=""
        text-align: center;
        font-size: 24px;
        opacity: 0.3;
        border: 2px solid #999;
        border-radius: 8px;
        padding: 20px 15px;
        width: 60px;
        box-shadow: none;
      "">
        J<br>
      </div></div></div>","f","5","0","fc","7","A2","{""A1"":""h"",""A3"":""j"",""A2"":""f"",""A4"":""g""}","{""A1"":0.8,""A2"":0.2,""A3"":0.5,""A4"":0.1}","Condition 1","0","","",""
"","","","","","html-keyboard-response","40","2.1.0","265823","null","<p style='color:gray; font-size: 48px;'>0</p>","null","","","","","","","","","","","",""
"","","","","","html-keyboard-response","41","2.1.0","266326","null","
    <div style=""text-align: center;"">
      <img src=""static/images/fix_cross.jpg"" style=""width: 400px; height: 400px; margin-bottom: 30px;"">
      <div style=""display: flex; justify-content: center; gap: 40px;"">
      <div style=""
        text-align: center;
        font-size: 24px;
        opacity: 1;
        border: 2px solid #000;
        border-radius: 8px;
        padding: 20px 15px;
        width: 60px;
        box-shadow: 0 0 10px #333;
      "">
        F<br>
      </div>
      <div style=""
        text-align: center;
        font-size: 24px;
        opacity: 0.3;
        border: 2px solid #999;
        border-radius: 8px;
        padding: 20px 15px;
        width: 60px;
        box-shadow: none;
      "">
        G<br>
      </div>
      <div style=""
        text-align: center;
        font-size: 24px;
        opacity: 0.3;
        border: 2px solid #999;
        border-radius: 8px;
        padding: 20px 15px;
        width: 60px;
        box-shadow: none;
      "">
        H<br>
      </div>
      <div style=""
        text-align: center;
        font-size: 24px;
        opacity: 0.3;
        border: 2px solid #999;
        border-radius: 8px;
        padding: 20px 15px;
        width: 60px;
        box-shadow: none;
      "">
        J<br>
      </div></div></div>","null","","","","","","","","","","","",""
"","","","","","html-keyboard-response","42","2.1.0","266652","324","
    <div style=""text-align: center;"">
      <img src=""static/images/7.jpg"" style=""width: 400px; height: 400px; margin-bottom: 30px;"">
      <div style=""display: flex; justify-content: center; gap: 40px;"">
      <div style=""
        text-align: center;
        font-size: 24px;
        opacity: 1;
        border: 2px solid #000;
        border-radius: 8px;
        padding: 20px 15px;
        width: 60px;
        box-shadow: 0 0 10px #333;
      "">
        F<br>
      </div>
      <div style=""
        text-align: center;
        font-size: 24px;
        opacity: 0.3;
        border: 2px solid #999;
        border-radius: 8px;
        padding: 20px 15px;
        width: 60px;
        box-shadow: none;
      "">
        G<br>
      </div>
      <div style=""
        text-align: center;
        font-size: 24px;
        opacity: 0.3;
        border: 2px solid #999;
        border-radius: 8px;
        padding: 20px 15px;
        width: 60px;
        box-shadow: none;
      "">
        H<br>
      </div>
      <div style=""
        text-align: center;
        font-size: 24px;
        opacity: 0.3;
        border: 2px solid #999;
        border-radius: 8px;
        padding: 20px 15px;
        width: 60px;
        box-shadow: none;
      "">
        J<br>
      </div></div></div>","f","5","1","fc","7","A2","{""A1"":""h"",""A3"":""j"",""A2"":""f"",""A4"":""g""}","{""A1"":0.8,""A2"":0.2,""A3"":0.5,""A4"":0.1}","Condition 1","0","","",""
"","","","","","html-keyboard-response","43","2.1.0","267654","null","<p style='color:gray; font-size: 48px;'>0</p>","null","","","","","","","","","","","",""
"","","","","","html-keyboard-response","44","2.1.0","268158","null","
    <div style=""text-align: center;"">
      <img src=""static/images/fix_cross.jpg"" style=""width: 400px; height: 400px; margin-bottom: 30px;"">
      <div style=""display: flex; justify-content: center; gap: 40px;"">
      <div style=""
        text-align: center;
        font-size: 24px;
        opacity: 1;
        border: 2px solid #000;
        border-radius: 8px;
        padding: 20px 15px;
        width: 60px;
        box-shadow: 0 0 10px #333;
      "">
        F<br>
      </div>
      <div style=""
        text-align: center;
        font-size: 24px;
        opacity: 0.3;
        border: 2px solid #999;
        border-radius: 8px;
        padding: 20px 15px;
        width: 60px;
        box-shadow: none;
      "">
        G<br>
      </div>
      <div style=""
        text-align: center;
        font-size: 24px;
        opacity: 0.3;
        border: 2px solid #999;
        border-radius: 8px;
        padding: 20px 15px;
        width: 60px;
        box-shadow: none;
      "">
        H<br>
      </div>
      <div style=""
        text-align: center;
        font-size: 24px;
        opacity: 0.3;
        border: 2px solid #999;
        border-radius: 8px;
        padding: 20px 15px;
        width: 60px;
        box-shadow: none;
      "">
        J<br>
      </div></div></div>","null","","","","","","","","","","","",""
"","","","","","html-keyboard-response","45","2.1.0","268534","374","
    <div style=""text-align: center;"">
      <img src=""static/images/7.jpg"" style=""width: 400px; height: 400px; margin-bottom: 30px;"">
      <div style=""display: flex; justify-content: center; gap: 40px;"">
      <div style=""
        text-align: center;
        font-size: 24px;
        opacity: 1;
        border: 2px solid #000;
        border-radius: 8px;
        padding: 20px 15px;
        width: 60px;
        box-shadow: 0 0 10px #333;
      "">
        F<br>
      </div>
      <div style=""
        text-align: center;
        font-size: 24px;
        opacity: 0.3;
        border: 2px solid #999;
        border-radius: 8px;
        padding: 20px 15px;
        width: 60px;
        box-shadow: none;
      "">
        G<br>
      </div>
      <div style=""
        text-align: center;
        font-size: 24px;
        opacity: 0.3;
        border: 2px solid #999;
        border-radius: 8px;
        padding: 20px 15px;
        width: 60px;
        box-shadow: none;
      "">
        H<br>
      </div>
      <div style=""
        text-align: center;
        font-size: 24px;
        opacity: 0.3;
        border: 2px solid #999;
        border-radius: 8px;
        padding: 20px 15px;
        width: 60px;
        box-shadow: none;
      "">
        J<br>
      </div></div></div>","f","5","2","fc","7","A2","{""A1"":""h"",""A3"":""j"",""A2"":""f"",""A4"":""g""}","{""A1"":0.8,""A2"":0.2,""A3"":0.5,""A4"":0.1}","Condition 1","0","","",""
"","","","","","html-keyboard-response","46","2.1.0","269537","null","<p style='color:gray; font-size: 48px;'>0</p>","null","","","","","","","","","","","",""
"","","","","","html-keyboard-response","47","2.1.0","270041","null","
    <div style=""text-align: center;"">
      <img src=""static/images/fix_cross.jpg"" style=""width: 400px; height: 400px; margin-bottom: 30px;"">
      <div style=""display: flex; justify-content: center; gap: 40px;"">
      <div style=""
        text-align: center;
        font-size: 24px;
        opacity: 1;
        border: 2px solid #000;
        border-radius: 8px;
        padding: 20px 15px;
        width: 60px;
        box-shadow: 0 0 10px #333;
      "">
        F<br>
      </div>
      <div style=""
        text-align: center;
        font-size: 24px;
        opacity: 0.3;
        border: 2px solid #999;
        border-radius: 8px;
        padding: 20px 15px;
        width: 60px;
        box-shadow: none;
      "">
        G<br>
      </div>
      <div style=""
        text-align: center;
        font-size: 24px;
        opacity: 0.3;
        border: 2px solid #999;
        border-radius: 8px;
        padding: 20px 15px;
        width: 60px;
        box-shadow: none;
      "">
        H<br>
      </div>
      <div style=""
        text-align: center;
        font-size: 24px;
        opacity: 0.3;
        border: 2px solid #999;
        border-radius: 8px;
        padding: 20px 15px;
        width: 60px;
        box-shadow: none;
      "">
        J<br>
      </div></div></div>","null","","","","","","","","","","","",""
"","","","","","html-keyboard-response","48","2.1.0","270569","526","
    <div style=""text-align: center;"">
      <img src=""static/images/7.jpg"" style=""width: 400px; height: 400px; margin-bottom: 30px;"">
      <div style=""display: flex; justify-content: center; gap: 40px;"">
      <div style=""
        text-align: center;
        font-size: 24px;
        opacity: 1;
        border: 2px solid #000;
        border-radius: 8px;
        padding: 20px 15px;
        width: 60px;
        box-shadow: 0 0 10px #333;
      "">
        F<br>
      </div>
      <div style=""
        text-align: center;
        font-size: 24px;
        opacity: 0.3;
        border: 2px solid #999;
        border-radius: 8px;
        padding: 20px 15px;
        width: 60px;
        box-shadow: none;
      "">
        G<br>
      </div>
      <div style=""
        text-align: center;
        font-size: 24px;
        opacity: 0.3;
        border: 2px solid #999;
        border-radius: 8px;
        padding: 20px 15px;
        width: 60px;
        box-shadow: none;
      "">
        H<br>
      </div>
      <div style=""
        text-align: center;
        font-size: 24px;
        opacity: 0.3;
        border: 2px solid #999;
        border-radius: 8px;
        padding: 20px 15px;
        width: 60px;
        box-shadow: none;
      "">
        J<br>
      </div></div></div>","f","5","3","fc","7","A2","{""A1"":""h"",""A3"":""j"",""A2"":""f"",""A4"":""g""}","{""A1"":0.8,""A2"":0.2,""A3"":0.5,""A4"":0.1}","Condition 1","0","","",""
"","","","","","html-keyboard-response","49","2.1.0","271572","null","<p style='color:gray; font-size: 48px;'>0</p>","null","","","","","","","","","","","",""
"","","","","","html-keyboard-response","50","2.1.0","272075","null","
    <div style=""text-align: center;"">
      <img src=""static/images/fix_cross.jpg"" style=""width: 400px; height: 400px; margin-bottom: 30px;"">
      <div style=""display: flex; justify-content: center; gap: 40px;"">
      <div style=""
        text-align: center;
        font-size: 24px;
        opacity: 1;
        border: 2px solid #000;
        border-radius: 8px;
        padding: 20px 15px;
        width: 60px;
        box-shadow: 0 0 10px #333;
      "">
        F<br>
      </div>
      <div style=""
        text-align: center;
        font-size: 24px;
        opacity: 0.3;
        border: 2px solid #999;
        border-radius: 8px;
        padding: 20px 15px;
        width: 60px;
        box-shadow: none;
      "">
        G<br>
      </div>
      <div style=""
        text-align: center;
        font-size: 24px;
        opacity: 0.3;
        border: 2px solid #999;
        border-radius: 8px;
        padding: 20px 15px;
        width: 60px;
        box-shadow: none;
      "">
        H<br>
      </div>
      <div style=""
        text-align: center;
        font-size: 24px;
        opacity: 0.3;
        border: 2px solid #999;
        border-radius: 8px;
        padding: 20px 15px;
        width: 60px;
        box-shadow: none;
      "">
        J<br>
      </div></div></div>","null","","","","","","","","","","","",""
"","","","","","html-keyboard-response","51","2.1.0","272436","358","
    <div style=""text-align: center;"">
      <img src=""static/images/7.jpg"" style=""width: 400px; height: 400px; margin-bottom: 30px;"">
      <div style=""display: flex; justify-content: center; gap: 40px;"">
      <div style=""
        text-align: center;
        font-size: 24px;
        opacity: 1;
        border: 2px solid #000;
        border-radius: 8px;
        padding: 20px 15px;
        width: 60px;
        box-shadow: 0 0 10px #333;
      "">
        F<br>
      </div>
      <div style=""
        text-align: center;
        font-size: 24px;
        opacity: 0.3;
        border: 2px solid #999;
        border-radius: 8px;
        padding: 20px 15px;
        width: 60px;
        box-shadow: none;
      "">
        G<br>
      </div>
      <div style=""
        text-align: center;
        font-size: 24px;
        opacity: 0.3;
        border: 2px solid #999;
        border-radius: 8px;
        padding: 20px 15px;
        width: 60px;
        box-shadow: none;
      "">
        H<br>
      </div>
      <div style=""
        text-align: center;
        font-size: 24px;
        opacity: 0.3;
        border: 2px solid #999;
        border-radius: 8px;
        padding: 20px 15px;
        width: 60px;
        box-shadow: none;
      "">
        J<br>
      </div></div></div>","f","5","4","fc","7","A2","{""A1"":""h"",""A3"":""j"",""A2"":""f"",""A4"":""g""}","{""A1"":0.8,""A2"":0.2,""A3"":0.5,""A4"":0.1}","Condition 1","1","","",""
"","","","","","html-keyboard-response","52","2.1.0","273439","null","<p style='color:green; font-size: 48px;'>+1</p>","null","","","","","","","","","","","",""
"","","","","","html-keyboard-response","53","2.1.0","273942","null","
    <div style=""text-align: center;"">
      <img src=""static/images/fix_cross.jpg"" style=""width: 400px; height: 400px; margin-bottom: 30px;"">
      <div style=""display: flex; justify-content: center; gap: 40px;"">
      <div style=""
        text-align: center;
        font-size: 24px;
        opacity: 0.3;
        border: 2px solid #999;
        border-radius: 8px;
        padding: 20px 15px;
        width: 60px;
        box-shadow: none;
      "">
        F<br>
      </div>
      <div style=""
        text-align: center;
        font-size: 24px;
        opacity: 0.3;
        border: 2px solid #999;
        border-radius: 8px;
        padding: 20px 15px;
        width: 60px;
        box-shadow: none;
      "">
        G<br>
      </div>
      <div style=""
        text-align: center;
        font-size: 24px;
        opacity: 0.3;
        border: 2px solid #999;
        border-radius: 8px;
        padding: 20px 15px;
        width: 60px;
        box-shadow: none;
      "">
        H<br>
      </div>
      <div style=""
        text-align: center;
        font-size: 24px;
        opacity: 1;
        border: 2px solid #000;
        border-radius: 8px;
        padding: 20px 15px;
        width: 60px;
        box-shadow: 0 0 10px #333;
      "">
        J<br>
      </div></div></div>","null","","","","","","","","","","","",""
"","","","","","html-keyboard-response","54","2.1.0","274466","522","
    <div style=""text-align: center;"">
      <img src=""static/images/7.jpg"" style=""width: 400px; height: 400px; margin-bottom: 30px;"">
      <div style=""display: flex; justify-content: center; gap: 40px;"">
      <div style=""
        text-align: center;
        font-size: 24px;
        opacity: 0.3;
        border: 2px solid #999;
        border-radius: 8px;
        padding: 20px 15px;
        width: 60px;
        box-shadow: none;
      "">
        F<br>
      </div>
      <div style=""
        text-align: center;
        font-size: 24px;
        opacity: 0.3;
        border: 2px solid #999;
        border-radius: 8px;
        padding: 20px 15px;
        width: 60px;
        box-shadow: none;
      "">
        G<br>
      </div>
      <div style=""
        text-align: center;
        font-size: 24px;
        opacity: 0.3;
        border: 2px solid #999;
        border-radius: 8px;
        padding: 20px 15px;
        width: 60px;
        box-shadow: none;
      "">
        H<br>
      </div>
      <div style=""
        text-align: center;
        font-size: 24px;
        opacity: 1;
        border: 2px solid #000;
        border-radius: 8px;
        padding: 20px 15px;
        width: 60px;
        box-shadow: 0 0 10px #333;
      "">
        J<br>
      </div></div></div>","j","5","0","fc","7","A3","{""A1"":""h"",""A3"":""j"",""A2"":""f"",""A4"":""g""}","{""A1"":0.8,""A2"":0.2,""A3"":0.5,""A4"":0.1}","Condition 1","1","","",""
"","","","","","html-keyboard-response","55","2.1.0","275469","null","<p style='color:green; font-size: 48px;'>+1</p>","null","","","","","","","","","","","",""
"","","","","","html-keyboard-response","56","2.1.0","275972","null","
    <div style=""text-align: center;"">
      <img src=""static/images/fix_cross.jpg"" style=""width: 400px; height: 400px; margin-bottom: 30px;"">
      <div style=""display: flex; justify-content: center; gap: 40px;"">
      <div style=""
        text-align: center;
        font-size: 24px;
        opacity: 0.3;
        border: 2px solid #999;
        border-radius: 8px;
        padding: 20px 15px;
        width: 60px;
        box-shadow: none;
      "">
        F<br>
      </div>
      <div style=""
        text-align: center;
        font-size: 24px;
        opacity: 0.3;
        border: 2px solid #999;
        border-radius: 8px;
        padding: 20px 15px;
        width: 60px;
        box-shadow: none;
      "">
        G<br>
      </div>
      <div style=""
        text-align: center;
        font-size: 24px;
        opacity: 0.3;
        border: 2px solid #999;
        border-radius: 8px;
        padding: 20px 15px;
        width: 60px;
        box-shadow: none;
      "">
        H<br>
      </div>
      <div style=""
        text-align: center;
        font-size: 24px;
        opacity: 1;
        border: 2px solid #000;
        border-radius: 8px;
        padding: 20px 15px;
        width: 60px;
        box-shadow: 0 0 10px #333;
      "">
        J<br>
      </div></div></div>","null","","","","","","","","","","","",""
"","","","","","html-keyboard-response","57","2.1.0","276206","232","
    <div style=""text-align: center;"">
      <img src=""static/images/7.jpg"" style=""width: 400px; height: 400px; margin-bottom: 30px;"">
      <div style=""display: flex; justify-content: center; gap: 40px;"">
      <div style=""
        text-align: center;
        font-size: 24px;
        opacity: 0.3;
        border: 2px solid #999;
        border-radius: 8px;
        padding: 20px 15px;
        width: 60px;
        box-shadow: none;
      "">
        F<br>
      </div>
      <div style=""
        text-align: center;
        font-size: 24px;
        opacity: 0.3;
        border: 2px solid #999;
        border-radius: 8px;
        padding: 20px 15px;
        width: 60px;
        box-shadow: none;
      "">
        G<br>
      </div>
      <div style=""
        text-align: center;
        font-size: 24px;
        opacity: 0.3;
        border: 2px solid #999;
        border-radius: 8px;
        padding: 20px 15px;
        width: 60px;
        box-shadow: none;
      "">
        H<br>
      </div>
      <div style=""
        text-align: center;
        font-size: 24px;
        opacity: 1;
        border: 2px solid #000;
        border-radius: 8px;
        padding: 20px 15px;
        width: 60px;
        box-shadow: 0 0 10px #333;
      "">
        J<br>
      </div></div></div>","j","5","1","fc","7","A3","{""A1"":""h"",""A3"":""j"",""A2"":""f"",""A4"":""g""}","{""A1"":0.8,""A2"":0.2,""A3"":0.5,""A4"":0.1}","Condition 1","0","","",""
"","","","","","html-keyboard-response","58","2.1.0","277209","null","<p style='color:gray; font-size: 48px;'>0</p>","null","","","","","","","","","","","",""
"","","","","","html-keyboard-response","59","2.1.0","277712","null","
    <div style=""text-align: center;"">
      <img src=""static/images/fix_cross.jpg"" style=""width: 400px; height: 400px; margin-bottom: 30px;"">
      <div style=""display: flex; justify-content: center; gap: 40px;"">
      <div style=""
        text-align: center;
        font-size: 24px;
        opacity: 0.3;
        border: 2px solid #999;
        border-radius: 8px;
        padding: 20px 15px;
        width: 60px;
        box-shadow: none;
      "">
        F<br>
      </div>
      <div style=""
        text-align: center;
        font-size: 24px;
        opacity: 0.3;
        border: 2px solid #999;
        border-radius: 8px;
        padding: 20px 15px;
        width: 60px;
        box-shadow: none;
      "">
        G<br>
      </div>
      <div style=""
        text-align: center;
        font-size: 24px;
        opacity: 0.3;
        border: 2px solid #999;
        border-radius: 8px;
        padding: 20px 15px;
        width: 60px;
        box-shadow: none;
      "">
        H<br>
      </div>
      <div style=""
        text-align: center;
        font-size: 24px;
        opacity: 1;
        border: 2px solid #000;
        border-radius: 8px;
        padding: 20px 15px;
        width: 60px;
        box-shadow: 0 0 10px #333;
      "">
        J<br>
      </div></div></div>","null","","","","","","","","","","","",""
"","","","","","html-keyboard-response","60","2.1.0","278016","301","
    <div style=""text-align: center;"">
      <img src=""static/images/7.jpg"" style=""width: 400px; height: 400px; margin-bottom: 30px;"">
      <div style=""display: flex; justify-content: center; gap: 40px;"">
      <div style=""
        text-align: center;
        font-size: 24px;
        opacity: 0.3;
        border: 2px solid #999;
        border-radius: 8px;
        padding: 20px 15px;
        width: 60px;
        box-shadow: none;
      "">
        F<br>
      </div>
      <div style=""
        text-align: center;
        font-size: 24px;
        opacity: 0.3;
        border: 2px solid #999;
        border-radius: 8px;
        padding: 20px 15px;
        width: 60px;
        box-shadow: none;
      "">
        G<br>
      </div>
      <div style=""
        text-align: center;
        font-size: 24px;
        opacity: 0.3;
        border: 2px solid #999;
        border-radius: 8px;
        padding: 20px 15px;
        width: 60px;
        box-shadow: none;
      "">
        H<br>
      </div>
      <div style=""
        text-align: center;
        font-size: 24px;
        opacity: 1;
        border: 2px solid #000;
        border-radius: 8px;
        padding: 20px 15px;
        width: 60px;
        box-shadow: 0 0 10px #333;
      "">
        J<br>
      </div></div></div>","j","5","2","fc","7","A3","{""A1"":""h"",""A3"":""j"",""A2"":""f"",""A4"":""g""}","{""A1"":0.8,""A2"":0.2,""A3"":0.5,""A4"":0.1}","Condition 1","1","","",""
"","","","","","html-keyboard-response","61","2.1.0","279019","null","<p style='color:green; font-size: 48px;'>+1</p>","null","","","","","","","","","","","",""
"","","","","","html-keyboard-response","62","2.1.0","279522","null","
    <div style=""text-align: center;"">
      <img src=""static/images/fix_cross.jpg"" style=""width: 400px; height: 400px; margin-bottom: 30px;"">
      <div style=""display: flex; justify-content: center; gap: 40px;"">
      <div style=""
        text-align: center;
        font-size: 24px;
        opacity: 0.3;
        border: 2px solid #999;
        border-radius: 8px;
        padding: 20px 15px;
        width: 60px;
        box-shadow: none;
      "">
        F<br>
      </div>
      <div style=""
        text-align: center;
        font-size: 24px;
        opacity: 0.3;
        border: 2px solid #999;
        border-radius: 8px;
        padding: 20px 15px;
        width: 60px;
        box-shadow: none;
      "">
        G<br>
      </div>
      <div style=""
        text-align: center;
        font-size: 24px;
        opacity: 0.3;
        border: 2px solid #999;
        border-radius: 8px;
        padding: 20px 15px;
        width: 60px;
        box-shadow: none;
      "">
        H<br>
      </div>
      <div style=""
        text-align: center;
        font-size: 24px;
        opacity: 1;
        border: 2px solid #000;
        border-radius: 8px;
        padding: 20px 15px;
        width: 60px;
        box-shadow: 0 0 10px #333;
      "">
        J<br>
      </div></div></div>","null","","","","","","","","","","","",""
"","","","","","html-keyboard-response","63","2.1.0","279890","367","
    <div style=""text-align: center;"">
      <img src=""static/images/7.jpg"" style=""width: 400px; height: 400px; margin-bottom: 30px;"">
      <div style=""display: flex; justify-content: center; gap: 40px;"">
      <div style=""
        text-align: center;
        font-size: 24px;
        opacity: 0.3;
        border: 2px solid #999;
        border-radius: 8px;
        padding: 20px 15px;
        width: 60px;
        box-shadow: none;
      "">
        F<br>
      </div>
      <div style=""
        text-align: center;
        font-size: 24px;
        opacity: 0.3;
        border: 2px solid #999;
        border-radius: 8px;
        padding: 20px 15px;
        width: 60px;
        box-shadow: none;
      "">
        G<br>
      </div>
      <div style=""
        text-align: center;
        font-size: 24px;
        opacity: 0.3;
        border: 2px solid #999;
        border-radius: 8px;
        padding: 20px 15px;
        width: 60px;
        box-shadow: none;
      "">
        H<br>
      </div>
      <div style=""
        text-align: center;
        font-size: 24px;
        opacity: 1;
        border: 2px solid #000;
        border-radius: 8px;
        padding: 20px 15px;
        width: 60px;
        box-shadow: 0 0 10px #333;
      "">
        J<br>
      </div></div></div>","j","5","3","fc","7","A3","{""A1"":""h"",""A3"":""j"",""A2"":""f"",""A4"":""g""}","{""A1"":0.8,""A2"":0.2,""A3"":0.5,""A4"":0.1}","Condition 1","1","","",""
"","","","","","html-keyboard-response","64","2.1.0","280893","null","<p style='color:green; font-size: 48px;'>+1</p>","null","","","","","","","","","","","",""
"","","","","","html-keyboard-response","65","2.1.0","281397","null","
    <div style=""text-align: center;"">
      <img src=""static/images/fix_cross.jpg"" style=""width: 400px; height: 400px; margin-bottom: 30px;"">
      <div style=""display: flex; justify-content: center; gap: 40px;"">
      <div style=""
        text-align: center;
        font-size: 24px;
        opacity: 0.3;
        border: 2px solid #999;
        border-radius: 8px;
        padding: 20px 15px;
        width: 60px;
        box-shadow: none;
      "">
        F<br>
      </div>
      <div style=""
        text-align: center;
        font-size: 24px;
        opacity: 0.3;
        border: 2px solid #999;
        border-radius: 8px;
        padding: 20px 15px;
        width: 60px;
        box-shadow: none;
      "">
        G<br>
      </div>
      <div style=""
        text-align: center;
        font-size: 24px;
        opacity: 0.3;
        border: 2px solid #999;
        border-radius: 8px;
        padding: 20px 15px;
        width: 60px;
        box-shadow: none;
      "">
        H<br>
      </div>
      <div style=""
        text-align: center;
        font-size: 24px;
        opacity: 1;
        border: 2px solid #000;
        border-radius: 8px;
        padding: 20px 15px;
        width: 60px;
        box-shadow: 0 0 10px #333;
      "">
        J<br>
      </div></div></div>","null","","","","","","","","","","","",""
"","","","","","html-keyboard-response","66","2.1.0","281855","457","
    <div style=""text-align: center;"">
      <img src=""static/images/7.jpg"" style=""width: 400px; height: 400px; margin-bottom: 30px;"">
      <div style=""display: flex; justify-content: center; gap: 40px;"">
      <div style=""
        text-align: center;
        font-size: 24px;
        opacity: 0.3;
        border: 2px solid #999;
        border-radius: 8px;
        padding: 20px 15px;
        width: 60px;
        box-shadow: none;
      "">
        F<br>
      </div>
      <div style=""
        text-align: center;
        font-size: 24px;
        opacity: 0.3;
        border: 2px solid #999;
        border-radius: 8px;
        padding: 20px 15px;
        width: 60px;
        box-shadow: none;
      "">
        G<br>
      </div>
      <div style=""
        text-align: center;
        font-size: 24px;
        opacity: 0.3;
        border: 2px solid #999;
        border-radius: 8px;
        padding: 20px 15px;
        width: 60px;
        box-shadow: none;
      "">
        H<br>
      </div>
      <div style=""
        text-align: center;
        font-size: 24px;
        opacity: 1;
        border: 2px solid #000;
        border-radius: 8px;
        padding: 20px 15px;
        width: 60px;
        box-shadow: 0 0 10px #333;
      "">
        J<br>
      </div></div></div>","j","5","4","fc","7","A3","{""A1"":""h"",""A3"":""j"",""A2"":""f"",""A4"":""g""}","{""A1"":0.8,""A2"":0.2,""A3"":0.5,""A4"":0.1}","Condition 1","0","","",""
"","","","","","html-keyboard-response","67","2.1.0","282858","null","<p style='color:gray; font-size: 48px;'>0</p>","null","","","","","","","","","","","",""
"","","","","","html-keyboard-response","68","2.1.0","289292","6433","
    <div style=""text-align: center;"">
      <h3>Image 1</h3>
      The following actions will be available:<br/><br/>
      <div style=""display: flex; justify-content: center; gap: 40px;"">
      <div style=""
        text-align: center;
        font-size: 24px;
        opacity: 0.3;
        border: 2px solid #999;
        border-radius: 8px;
        padding: 20px 15px;
        width: 60px;
        box-shadow: none;
      "">
        F<br>
      </div>
      <div style=""
        text-align: center;
        font-size: 24px;
        opacity: 1;
        border: 2px solid #000;
        border-radius: 8px;
        padding: 20px 15px;
        width: 60px;
        box-shadow: 0 0 10px #333;
      "">
        G<br>
      </div>
      <div style=""
        text-align: center;
        font-size: 24px;
        opacity: 0.3;
        border: 2px solid #999;
        border-radius: 8px;
        padding: 20px 15px;
        width: 60px;
        box-shadow: none;
      "">
        H<br>
      </div>
      <div style=""
        text-align: center;
        font-size: 24px;
        opacity: 1;
        border: 2px solid #000;
        border-radius: 8px;
        padding: 20px 15px;
        width: 60px;
        box-shadow: 0 0 10px #333;
      "">
        J<br>
      </div></div></div></p></div><p class=""continue"">[Press SPACE to continue]</p>"," ","","","","","","","","","","","",""
"","","","","","html-keyboard-response","69","2.1.0","289794","null","
    <div style=""text-align: center;"">
      <img src=""static/images/fix_cross.jpg"" style=""width: 400px; height: 400px; margin-bottom: 30px;"">
      <div style=""display: flex; justify-content: center; gap: 40px;"">
      <div style=""
        text-align: center;
        font-size: 24px;
        opacity: 0.3;
        border: 2px solid #999;
        border-radius: 8px;
        padding: 20px 15px;
        width: 60px;
        box-shadow: none;
      "">
        F<br>
      </div>
      <div style=""
        text-align: center;
        font-size: 24px;
        opacity: 1;
        border: 2px solid #000;
        border-radius: 8px;
        padding: 20px 15px;
        width: 60px;
        box-shadow: 0 0 10px #333;
      "">
        G<br>
      </div>
      <div style=""
        text-align: center;
        font-size: 24px;
        opacity: 0.3;
        border: 2px solid #999;
        border-radius: 8px;
        padding: 20px 15px;
        width: 60px;
        box-shadow: none;
      "">
        H<br>
      </div>
      <div style=""
        text-align: center;
        font-size: 24px;
        opacity: 1;
        border: 2px solid #000;
        border-radius: 8px;
        padding: 20px 15px;
        width: 60px;
        box-shadow: 0 0 10px #333;
      "">
        J<br>
      </div></div></div>","null","","","","","","","","","","","",""
"","","","","","html-keyboard-response","70","2.1.0","290400","604","
    <div style=""text-align: center;"">
      <img src=""static/images/7.jpg"" style=""width: 400px; height: 400px; margin-bottom: 30px;"">
      <div style=""display: flex; justify-content: center; gap: 40px;"">
      <div style=""
        text-align: center;
        font-size: 24px;
        opacity: 0.3;
        border: 2px solid #999;
        border-radius: 8px;
        padding: 20px 15px;
        width: 60px;
        box-shadow: none;
      "">
        F<br>
      </div>
      <div style=""
        text-align: center;
        font-size: 24px;
        opacity: 1;
        border: 2px solid #000;
        border-radius: 8px;
        padding: 20px 15px;
        width: 60px;
        box-shadow: 0 0 10px #333;
      "">
        G<br>
      </div>
      <div style=""
        text-align: center;
        font-size: 24px;
        opacity: 0.3;
        border: 2px solid #999;
        border-radius: 8px;
        padding: 20px 15px;
        width: 60px;
        box-shadow: none;
      "">
        H<br>
      </div>
      <div style=""
        text-align: center;
        font-size: 24px;
        opacity: 1;
        border: 2px solid #000;
        border-radius: 8px;
        padding: 20px 15px;
        width: 60px;
        box-shadow: 0 0 10px #333;
      "">
        J<br>
      </div></div></div>","j","5","","training","7","A3","{""A1"":""h"",""A3"":""j"",""A2"":""f"",""A4"":""g""}","{""A1"":0.8,""A2"":0.2,""A3"":0.5,""A4"":0.1}","Condition 1","1","0","[""A3"",""A4""]","[""j"",""g""]"
"","","","","","html-keyboard-response","71","2.1.0","291404","null","<p style='color:green; font-size: 48px;'>+1</p>","null","","","","","","","","","","","",""
"","","","","","html-keyboard-response","72","2.1.0","291909","null","
    <div style=""text-align: center;"">
      <img src=""static/images/fix_cross.jpg"" style=""width: 400px; height: 400px; margin-bottom: 30px;"">
      <div style=""display: flex; justify-content: center; gap: 40px;"">
      <div style=""
        text-align: center;
        font-size: 24px;
        opacity: 0.3;
        border: 2px solid #999;
        border-radius: 8px;
        padding: 20px 15px;
        width: 60px;
        box-shadow: none;
      "">
        F<br>
      </div>
      <div style=""
        text-align: center;
        font-size: 24px;
        opacity: 1;
        border: 2px solid #000;
        border-radius: 8px;
        padding: 20px 15px;
        width: 60px;
        box-shadow: 0 0 10px #333;
      "">
        G<br>
      </div>
      <div style=""
        text-align: center;
        font-size: 24px;
        opacity: 0.3;
        border: 2px solid #999;
        border-radius: 8px;
        padding: 20px 15px;
        width: 60px;
        box-shadow: none;
      "">
        H<br>
      </div>
      <div style=""
        text-align: center;
        font-size: 24px;
        opacity: 1;
        border: 2px solid #000;
        border-radius: 8px;
        padding: 20px 15px;
        width: 60px;
        box-shadow: 0 0 10px #333;
      "">
        J<br>
      </div></div></div>","null","","","","","","","","","","","",""
"","","","","","html-keyboard-response","73","2.1.0","292268","357","
    <div style=""text-align: center;"">
      <img src=""static/images/7.jpg"" style=""width: 400px; height: 400px; margin-bottom: 30px;"">
      <div style=""display: flex; justify-content: center; gap: 40px;"">
      <div style=""
        text-align: center;
        font-size: 24px;
        opacity: 0.3;
        border: 2px solid #999;
        border-radius: 8px;
        padding: 20px 15px;
        width: 60px;
        box-shadow: none;
      "">
        F<br>
      </div>
      <div style=""
        text-align: center;
        font-size: 24px;
        opacity: 1;
        border: 2px solid #000;
        border-radius: 8px;
        padding: 20px 15px;
        width: 60px;
        box-shadow: 0 0 10px #333;
      "">
        G<br>
      </div>
      <div style=""
        text-align: center;
        font-size: 24px;
        opacity: 0.3;
        border: 2px solid #999;
        border-radius: 8px;
        padding: 20px 15px;
        width: 60px;
        box-shadow: none;
      "">
        H<br>
      </div>
      <div style=""
        text-align: center;
        font-size: 24px;
        opacity: 1;
        border: 2px solid #000;
        border-radius: 8px;
        padding: 20px 15px;
        width: 60px;
        box-shadow: 0 0 10px #333;
      "">
        J<br>
      </div></div></div>","j","5","","training","7","A3","{""A1"":""h"",""A3"":""j"",""A2"":""f"",""A4"":""g""}","{""A1"":0.8,""A2"":0.2,""A3"":0.5,""A4"":0.1}","Condition 1","1","1","[""A3"",""A4""]","[""j"",""g""]"
"","","","","","html-keyboard-response","74","2.1.0","293271","null","<p style='color:green; font-size: 48px;'>+1</p>","null","","","","","","","","","","","",""
"","","","","","html-keyboard-response","75","2.1.0","293775","null","
    <div style=""text-align: center;"">
      <img src=""static/images/fix_cross.jpg"" style=""width: 400px; height: 400px; margin-bottom: 30px;"">
      <div style=""display: flex; justify-content: center; gap: 40px;"">
      <div style=""
        text-align: center;
        font-size: 24px;
        opacity: 0.3;
        border: 2px solid #999;
        border-radius: 8px;
        padding: 20px 15px;
        width: 60px;
        box-shadow: none;
      "">
        F<br>
      </div>
      <div style=""
        text-align: center;
        font-size: 24px;
        opacity: 1;
        border: 2px solid #000;
        border-radius: 8px;
        padding: 20px 15px;
        width: 60px;
        box-shadow: 0 0 10px #333;
      "">
        G<br>
      </div>
      <div style=""
        text-align: center;
        font-size: 24px;
        opacity: 0.3;
        border: 2px solid #999;
        border-radius: 8px;
        padding: 20px 15px;
        width: 60px;
        box-shadow: none;
      "">
        H<br>
      </div>
      <div style=""
        text-align: center;
        font-size: 24px;
        opacity: 1;
        border: 2px solid #000;
        border-radius: 8px;
        padding: 20px 15px;
        width: 60px;
        box-shadow: 0 0 10px #333;
      "">
        J<br>
      </div></div></div>","null","","","","","","","","","","","",""
"","","","","","html-keyboard-response","76","2.1.0","293996","220","
    <div style=""text-align: center;"">
      <img src=""static/images/7.jpg"" style=""width: 400px; height: 400px; margin-bottom: 30px;"">
      <div style=""display: flex; justify-content: center; gap: 40px;"">
      <div style=""
        text-align: center;
        font-size: 24px;
        opacity: 0.3;
        border: 2px solid #999;
        border-radius: 8px;
        padding: 20px 15px;
        width: 60px;
        box-shadow: none;
      "">
        F<br>
      </div>
      <div style=""
        text-align: center;
        font-size: 24px;
        opacity: 1;
        border: 2px solid #000;
        border-radius: 8px;
        padding: 20px 15px;
        width: 60px;
        box-shadow: 0 0 10px #333;
      "">
        G<br>
      </div>
      <div style=""
        text-align: center;
        font-size: 24px;
        opacity: 0.3;
        border: 2px solid #999;
        border-radius: 8px;
        padding: 20px 15px;
        width: 60px;
        box-shadow: none;
      "">
        H<br>
      </div>
      <div style=""
        text-align: center;
        font-size: 24px;
        opacity: 1;
        border: 2px solid #000;
        border-radius: 8px;
        padding: 20px 15px;
        width: 60px;
        box-shadow: 0 0 10px #333;
      "">
        J<br>
      </div></div></div>","j","5","","training","7","A3","{""A1"":""h"",""A3"":""j"",""A2"":""f"",""A4"":""g""}","{""A1"":0.8,""A2"":0.2,""A3"":0.5,""A4"":0.1}","Condition 1","1","2","[""A3"",""A4""]","[""j"",""g""]"
"","","","","","html-keyboard-response","77","2.1.0","294999","null","<p style='color:green; font-size: 48px;'>+1</p>","null","","","","","","","","","","","",""
"","","","","","html-keyboard-response","78","2.1.0","295502","null","
    <div style=""text-align: center;"">
      <img src=""static/images/fix_cross.jpg"" style=""width: 400px; height: 400px; margin-bottom: 30px;"">
      <div style=""display: flex; justify-content: center; gap: 40px;"">
      <div style=""
        text-align: center;
        font-size: 24px;
        opacity: 0.3;
        border: 2px solid #999;
        border-radius: 8px;
        padding: 20px 15px;
        width: 60px;
        box-shadow: none;
      "">
        F<br>
      </div>
      <div style=""
        text-align: center;
        font-size: 24px;
        opacity: 1;
        border: 2px solid #000;
        border-radius: 8px;
        padding: 20px 15px;
        width: 60px;
        box-shadow: 0 0 10px #333;
      "">
        G<br>
      </div>
      <div style=""
        text-align: center;
        font-size: 24px;
        opacity: 0.3;
        border: 2px solid #999;
        border-radius: 8px;
        padding: 20px 15px;
        width: 60px;
        box-shadow: none;
      "">
        H<br>
      </div>
      <div style=""
        text-align: center;
        font-size: 24px;
        opacity: 1;
        border: 2px solid #000;
        border-radius: 8px;
        padding: 20px 15px;
        width: 60px;
        box-shadow: 0 0 10px #333;
      "">
        J<br>
      </div></div></div>","null","","","","","","","","","","","",""
"","","","","","html-keyboard-response","79","2.1.0","295759","255","
    <div style=""text-align: center;"">
      <img src=""static/images/7.jpg"" style=""width: 400px; height: 400px; margin-bottom: 30px;"">
      <div style=""display: flex; justify-content: center; gap: 40px;"">
      <div style=""
        text-align: center;
        font-size: 24px;
        opacity: 0.3;
        border: 2px solid #999;
        border-radius: 8px;
        padding: 20px 15px;
        width: 60px;
        box-shadow: none;
      "">
        F<br>
      </div>
      <div style=""
        text-align: center;
        font-size: 24px;
        opacity: 1;
        border: 2px solid #000;
        border-radius: 8px;
        padding: 20px 15px;
        width: 60px;
        box-shadow: 0 0 10px #333;
      "">
        G<br>
      </div>
      <div style=""
        text-align: center;
        font-size: 24px;
        opacity: 0.3;
        border: 2px solid #999;
        border-radius: 8px;
        padding: 20px 15px;
        width: 60px;
        box-shadow: none;
      "">
        H<br>
      </div>
      <div style=""
        text-align: center;
        font-size: 24px;
        opacity: 1;
        border: 2px solid #000;
        border-radius: 8px;
        padding: 20px 15px;
        width: 60px;
        box-shadow: 0 0 10px #333;
      "">
        J<br>
      </div></div></div>","j","5","","training","7","A3","{""A1"":""h"",""A3"":""j"",""A2"":""f"",""A4"":""g""}","{""A1"":0.8,""A2"":0.2,""A3"":0.5,""A4"":0.1}","Condition 1","0","3","[""A3"",""A4""]","[""j"",""g""]"
"","","","","","html-keyboard-response","80","2.1.0","296762","null","<p style='color:gray; font-size: 48px;'>0</p>","null","","","","","","","","","","","",""
"","","","","","html-keyboard-response","81","2.1.0","297265","null","
    <div style=""text-align: center;"">
      <img src=""static/images/fix_cross.jpg"" style=""width: 400px; height: 400px; margin-bottom: 30px;"">
      <div style=""display: flex; justify-content: center; gap: 40px;"">
      <div style=""
        text-align: center;
        font-size: 24px;
        opacity: 0.3;
        border: 2px solid #999;
        border-radius: 8px;
        padding: 20px 15px;
        width: 60px;
        box-shadow: none;
      "">
        F<br>
      </div>
      <div style=""
        text-align: center;
        font-size: 24px;
        opacity: 1;
        border: 2px solid #000;
        border-radius: 8px;
        padding: 20px 15px;
        width: 60px;
        box-shadow: 0 0 10px #333;
      "">
        G<br>
      </div>
      <div style=""
        text-align: center;
        font-size: 24px;
        opacity: 0.3;
        border: 2px solid #999;
        border-radius: 8px;
        padding: 20px 15px;
        width: 60px;
        box-shadow: none;
      "">
        H<br>
      </div>
      <div style=""
        text-align: center;
        font-size: 24px;
        opacity: 1;
        border: 2px solid #000;
        border-radius: 8px;
        padding: 20px 15px;
        width: 60px;
        box-shadow: 0 0 10px #333;
      "">
        J<br>
      </div></div></div>","null","","","","","","","","","","","",""
"","","","","","html-keyboard-response","82","2.1.0","297642","374","
    <div style=""text-align: center;"">
      <img src=""static/images/7.jpg"" style=""width: 400px; height: 400px; margin-bottom: 30px;"">
      <div style=""display: flex; justify-content: center; gap: 40px;"">
      <div style=""
        text-align: center;
        font-size: 24px;
        opacity: 0.3;
        border: 2px solid #999;
        border-radius: 8px;
        padding: 20px 15px;
        width: 60px;
        box-shadow: none;
      "">
        F<br>
      </div>
      <div style=""
        text-align: center;
        font-size: 24px;
        opacity: 1;
        border: 2px solid #000;
        border-radius: 8px;
        padding: 20px 15px;
        width: 60px;
        box-shadow: 0 0 10px #333;
      "">
        G<br>
      </div>
      <div style=""
        text-align: center;
        font-size: 24px;
        opacity: 0.3;
        border: 2px solid #999;
        border-radius: 8px;
        padding: 20px 15px;
        width: 60px;
        box-shadow: none;
      "">
        H<br>
      </div>
      <div style=""
        text-align: center;
        font-size: 24px;
        opacity: 1;
        border: 2px solid #000;
        border-radius: 8px;
        padding: 20px 15px;
        width: 60px;
        box-shadow: 0 0 10px #333;
      "">
        J<br>
      </div></div></div>","j","5","","training","7","A3","{""A1"":""h"",""A3"":""j"",""A2"":""f"",""A4"":""g""}","{""A1"":0.8,""A2"":0.2,""A3"":0.5,""A4"":0.1}","Condition 1","1","4","[""A3"",""A4""]","[""j"",""g""]"
"","","","","","html-keyboard-response","83","2.1.0","298645","null","<p style='color:green; font-size: 48px;'>+1</p>","null","","","","","","","","","","","",""
"","","","","","html-keyboard-response","84","2.1.0","299149","null","
    <div style=""text-align: center;"">
      <img src=""static/images/fix_cross.jpg"" style=""width: 400px; height: 400px; margin-bottom: 30px;"">
      <div style=""display: flex; justify-content: center; gap: 40px;"">
      <div style=""
        text-align: center;
        font-size: 24px;
        opacity: 0.3;
        border: 2px solid #999;
        border-radius: 8px;
        padding: 20px 15px;
        width: 60px;
        box-shadow: none;
      "">
        F<br>
      </div>
      <div style=""
        text-align: center;
        font-size: 24px;
        opacity: 1;
        border: 2px solid #000;
        border-radius: 8px;
        padding: 20px 15px;
        width: 60px;
        box-shadow: 0 0 10px #333;
      "">
        G<br>
      </div>
      <div style=""
        text-align: center;
        font-size: 24px;
        opacity: 0.3;
        border: 2px solid #999;
        border-radius: 8px;
        padding: 20px 15px;
        width: 60px;
        box-shadow: none;
      "">
        H<br>
      </div>
      <div style=""
        text-align: center;
        font-size: 24px;
        opacity: 1;
        border: 2px solid #000;
        border-radius: 8px;
        padding: 20px 15px;
        width: 60px;
        box-shadow: 0 0 10px #333;
      "">
        J<br>
      </div></div></div>","null","","","","","","","","","","","",""
"","","","","","html-keyboard-response","85","2.1.0","299417","266","
    <div style=""text-align: center;"">
      <img src=""static/images/7.jpg"" style=""width: 400px; height: 400px; margin-bottom: 30px;"">
      <div style=""display: flex; justify-content: center; gap: 40px;"">
      <div style=""
        text-align: center;
        font-size: 24px;
        opacity: 0.3;
        border: 2px solid #999;
        border-radius: 8px;
        padding: 20px 15px;
        width: 60px;
        box-shadow: none;
      "">
        F<br>
      </div>
      <div style=""
        text-align: center;
        font-size: 24px;
        opacity: 1;
        border: 2px solid #000;
        border-radius: 8px;
        padding: 20px 15px;
        width: 60px;
        box-shadow: 0 0 10px #333;
      "">
        G<br>
      </div>
      <div style=""
        text-align: center;
        font-size: 24px;
        opacity: 0.3;
        border: 2px solid #999;
        border-radius: 8px;
        padding: 20px 15px;
        width: 60px;
        box-shadow: none;
      "">
        H<br>
      </div>
      <div style=""
        text-align: center;
        font-size: 24px;
        opacity: 1;
        border: 2px solid #000;
        border-radius: 8px;
        padding: 20px 15px;
        width: 60px;
        box-shadow: 0 0 10px #333;
      "">
        J<br>
      </div></div></div>","j","5","","training","7","A3","{""A1"":""h"",""A3"":""j"",""A2"":""f"",""A4"":""g""}","{""A1"":0.8,""A2"":0.2,""A3"":0.5,""A4"":0.1}","Condition 1","1","5","[""A3"",""A4""]","[""j"",""g""]"
"","","","","","html-keyboard-response","86","2.1.0","300420","null","<p style='color:green; font-size: 48px;'>+1</p>","null","","","","","","","","","","","",""
"","","","","","html-keyboard-response","87","2.1.0","300924","null","
    <div style=""text-align: center;"">
      <img src=""static/images/fix_cross.jpg"" style=""width: 400px; height: 400px; margin-bottom: 30px;"">
      <div style=""display: flex; justify-content: center; gap: 40px;"">
      <div style=""
        text-align: center;
        font-size: 24px;
        opacity: 0.3;
        border: 2px solid #999;
        border-radius: 8px;
        padding: 20px 15px;
        width: 60px;
        box-shadow: none;
      "">
        F<br>
      </div>
      <div style=""
        text-align: center;
        font-size: 24px;
        opacity: 1;
        border: 2px solid #000;
        border-radius: 8px;
        padding: 20px 15px;
        width: 60px;
        box-shadow: 0 0 10px #333;
      "">
        G<br>
      </div>
      <div style=""
        text-align: center;
        font-size: 24px;
        opacity: 0.3;
        border: 2px solid #999;
        border-radius: 8px;
        padding: 20px 15px;
        width: 60px;
        box-shadow: none;
      "">
        H<br>
      </div>
      <div style=""
        text-align: center;
        font-size: 24px;
        opacity: 1;
        border: 2px solid #000;
        border-radius: 8px;
        padding: 20px 15px;
        width: 60px;
        box-shadow: 0 0 10px #333;
      "">
        J<br>
      </div></div></div>","null","","","","","","","","","","","",""
"","","","","","html-keyboard-response","88","2.1.0","301179","253","
    <div style=""text-align: center;"">
      <img src=""static/images/7.jpg"" style=""width: 400px; height: 400px; margin-bottom: 30px;"">
      <div style=""display: flex; justify-content: center; gap: 40px;"">
      <div style=""
        text-align: center;
        font-size: 24px;
        opacity: 0.3;
        border: 2px solid #999;
        border-radius: 8px;
        padding: 20px 15px;
        width: 60px;
        box-shadow: none;
      "">
        F<br>
      </div>
      <div style=""
        text-align: center;
        font-size: 24px;
        opacity: 1;
        border: 2px solid #000;
        border-radius: 8px;
        padding: 20px 15px;
        width: 60px;
        box-shadow: 0 0 10px #333;
      "">
        G<br>
      </div>
      <div style=""
        text-align: center;
        font-size: 24px;
        opacity: 0.3;
        border: 2px solid #999;
        border-radius: 8px;
        padding: 20px 15px;
        width: 60px;
        box-shadow: none;
      "">
        H<br>
      </div>
      <div style=""
        text-align: center;
        font-size: 24px;
        opacity: 1;
        border: 2px solid #000;
        border-radius: 8px;
        padding: 20px 15px;
        width: 60px;
        box-shadow: 0 0 10px #333;
      "">
        J<br>
      </div></div></div>","j","5","","training","7","A3","{""A1"":""h"",""A3"":""j"",""A2"":""f"",""A4"":""g""}","{""A1"":0.8,""A2"":0.2,""A3"":0.5,""A4"":0.1}","Condition 1","0","6","[""A3"",""A4""]","[""j"",""g""]"
"","","","","","html-keyboard-response","89","2.1.0","302182","null","<p style='color:gray; font-size: 48px;'>0</p>","null","","","","","","","","","","","",""
"","","","","","html-keyboard-response","90","2.1.0","302686","null","
    <div style=""text-align: center;"">
      <img src=""static/images/fix_cross.jpg"" style=""width: 400px; height: 400px; margin-bottom: 30px;"">
      <div style=""display: flex; justify-content: center; gap: 40px;"">
      <div style=""
        text-align: center;
        font-size: 24px;
        opacity: 0.3;
        border: 2px solid #999;
        border-radius: 8px;
        padding: 20px 15px;
        width: 60px;
        box-shadow: none;
      "">
        F<br>
      </div>
      <div style=""
        text-align: center;
        font-size: 24px;
        opacity: 1;
        border: 2px solid #000;
        border-radius: 8px;
        padding: 20px 15px;
        width: 60px;
        box-shadow: 0 0 10px #333;
      "">
        G<br>
      </div>
      <div style=""
        text-align: center;
        font-size: 24px;
        opacity: 0.3;
        border: 2px solid #999;
        border-radius: 8px;
        padding: 20px 15px;
        width: 60px;
        box-shadow: none;
      "">
        H<br>
      </div>
      <div style=""
        text-align: center;
        font-size: 24px;
        opacity: 1;
        border: 2px solid #000;
        border-radius: 8px;
        padding: 20px 15px;
        width: 60px;
        box-shadow: 0 0 10px #333;
      "">
        J<br>
      </div></div></div>","null","","","","","","","","","","","",""
"","","","","","html-keyboard-response","91","2.1.0","303027","340","
    <div style=""text-align: center;"">
      <img src=""static/images/7.jpg"" style=""width: 400px; height: 400px; margin-bottom: 30px;"">
      <div style=""display: flex; justify-content: center; gap: 40px;"">
      <div style=""
        text-align: center;
        font-size: 24px;
        opacity: 0.3;
        border: 2px solid #999;
        border-radius: 8px;
        padding: 20px 15px;
        width: 60px;
        box-shadow: none;
      "">
        F<br>
      </div>
      <div style=""
        text-align: center;
        font-size: 24px;
        opacity: 1;
        border: 2px solid #000;
        border-radius: 8px;
        padding: 20px 15px;
        width: 60px;
        box-shadow: 0 0 10px #333;
      "">
        G<br>
      </div>
      <div style=""
        text-align: center;
        font-size: 24px;
        opacity: 0.3;
        border: 2px solid #999;
        border-radius: 8px;
        padding: 20px 15px;
        width: 60px;
        box-shadow: none;
      "">
        H<br>
      </div>
      <div style=""
        text-align: center;
        font-size: 24px;
        opacity: 1;
        border: 2px solid #000;
        border-radius: 8px;
        padding: 20px 15px;
        width: 60px;
        box-shadow: 0 0 10px #333;
      "">
        J<br>
      </div></div></div>","j","5","","training","7","A3","{""A1"":""h"",""A3"":""j"",""A2"":""f"",""A4"":""g""}","{""A1"":0.8,""A2"":0.2,""A3"":0.5,""A4"":0.1}","Condition 1","1","7","[""A3"",""A4""]","[""j"",""g""]"
"","","","","","html-keyboard-response","92","2.1.0","304030","null","<p style='color:green; font-size: 48px;'>+1</p>","null","","","","","","","","","","","",""
"","","","","","html-keyboard-response","93","2.1.0","304534","null","
    <div style=""text-align: center;"">
      <img src=""static/images/fix_cross.jpg"" style=""width: 400px; height: 400px; margin-bottom: 30px;"">
      <div style=""display: flex; justify-content: center; gap: 40px;"">
      <div style=""
        text-align: center;
        font-size: 24px;
        opacity: 0.3;
        border: 2px solid #999;
        border-radius: 8px;
        padding: 20px 15px;
        width: 60px;
        box-shadow: none;
      "">
        F<br>
      </div>
      <div style=""
        text-align: center;
        font-size: 24px;
        opacity: 1;
        border: 2px solid #000;
        border-radius: 8px;
        padding: 20px 15px;
        width: 60px;
        box-shadow: 0 0 10px #333;
      "">
        G<br>
      </div>
      <div style=""
        text-align: center;
        font-size: 24px;
        opacity: 0.3;
        border: 2px solid #999;
        border-radius: 8px;
        padding: 20px 15px;
        width: 60px;
        box-shadow: none;
      "">
        H<br>
      </div>
      <div style=""
        text-align: center;
        font-size: 24px;
        opacity: 1;
        border: 2px solid #000;
        border-radius: 8px;
        padding: 20px 15px;
        width: 60px;
        box-shadow: 0 0 10px #333;
      "">
        J<br>
      </div></div></div>","null","","","","","","","","","","","",""
"","","","","","html-keyboard-response","94","2.1.0","304855","320","
    <div style=""text-align: center;"">
      <img src=""static/images/7.jpg"" style=""width: 400px; height: 400px; margin-bottom: 30px;"">
      <div style=""display: flex; justify-content: center; gap: 40px;"">
      <div style=""
        text-align: center;
        font-size: 24px;
        opacity: 0.3;
        border: 2px solid #999;
        border-radius: 8px;
        padding: 20px 15px;
        width: 60px;
        box-shadow: none;
      "">
        F<br>
      </div>
      <div style=""
        text-align: center;
        font-size: 24px;
        opacity: 1;
        border: 2px solid #000;
        border-radius: 8px;
        padding: 20px 15px;
        width: 60px;
        box-shadow: 0 0 10px #333;
      "">
        G<br>
      </div>
      <div style=""
        text-align: center;
        font-size: 24px;
        opacity: 0.3;
        border: 2px solid #999;
        border-radius: 8px;
        padding: 20px 15px;
        width: 60px;
        box-shadow: none;
      "">
        H<br>
      </div>
      <div style=""
        text-align: center;
        font-size: 24px;
        opacity: 1;
        border: 2px solid #000;
        border-radius: 8px;
        padding: 20px 15px;
        width: 60px;
        box-shadow: 0 0 10px #333;
      "">
        J<br>
      </div></div></div>","j","5","","training","7","A3","{""A1"":""h"",""A3"":""j"",""A2"":""f"",""A4"":""g""}","{""A1"":0.8,""A2"":0.2,""A3"":0.5,""A4"":0.1}","Condition 1","0","8","[""A3"",""A4""]","[""j"",""g""]"
"","","","","","html-keyboard-response","95","2.1.0","305857","null","<p style='color:gray; font-size: 48px;'>0</p>","null","","","","","","","","","","","",""
"","","","","","html-keyboard-response","96","2.1.0","306361","null","
    <div style=""text-align: center;"">
      <img src=""static/images/fix_cross.jpg"" style=""width: 400px; height: 400px; margin-bottom: 30px;"">
      <div style=""display: flex; justify-content: center; gap: 40px;"">
      <div style=""
        text-align: center;
        font-size: 24px;
        opacity: 0.3;
        border: 2px solid #999;
        border-radius: 8px;
        padding: 20px 15px;
        width: 60px;
        box-shadow: none;
      "">
        F<br>
      </div>
      <div style=""
        text-align: center;
        font-size: 24px;
        opacity: 1;
        border: 2px solid #000;
        border-radius: 8px;
        padding: 20px 15px;
        width: 60px;
        box-shadow: 0 0 10px #333;
      "">
        G<br>
      </div>
      <div style=""
        text-align: center;
        font-size: 24px;
        opacity: 0.3;
        border: 2px solid #999;
        border-radius: 8px;
        padding: 20px 15px;
        width: 60px;
        box-shadow: none;
      "">
        H<br>
      </div>
      <div style=""
        text-align: center;
        font-size: 24px;
        opacity: 1;
        border: 2px solid #000;
        border-radius: 8px;
        padding: 20px 15px;
        width: 60px;
        box-shadow: 0 0 10px #333;
      "">
        J<br>
      </div></div></div>","null","","","","","","","","","","","",""
"","","","","","html-keyboard-response","97","2.1.0","306599","236","
    <div style=""text-align: center;"">
      <img src=""static/images/7.jpg"" style=""width: 400px; height: 400px; margin-bottom: 30px;"">
      <div style=""display: flex; justify-content: center; gap: 40px;"">
      <div style=""
        text-align: center;
        font-size: 24px;
        opacity: 0.3;
        border: 2px solid #999;
        border-radius: 8px;
        padding: 20px 15px;
        width: 60px;
        box-shadow: none;
      "">
        F<br>
      </div>
      <div style=""
        text-align: center;
        font-size: 24px;
        opacity: 1;
        border: 2px solid #000;
        border-radius: 8px;
        padding: 20px 15px;
        width: 60px;
        box-shadow: 0 0 10px #333;
      "">
        G<br>
      </div>
      <div style=""
        text-align: center;
        font-size: 24px;
        opacity: 0.3;
        border: 2px solid #999;
        border-radius: 8px;
        padding: 20px 15px;
        width: 60px;
        box-shadow: none;
      "">
        H<br>
      </div>
      <div style=""
        text-align: center;
        font-size: 24px;
        opacity: 1;
        border: 2px solid #000;
        border-radius: 8px;
        padding: 20px 15px;
        width: 60px;
        box-shadow: 0 0 10px #333;
      "">
        J<br>
      </div></div></div>","j","5","","training","7","A3","{""A1"":""h"",""A3"":""j"",""A2"":""f"",""A4"":""g""}","{""A1"":0.8,""A2"":0.2,""A3"":0.5,""A4"":0.1}","Condition 1","1","9","[""A3"",""A4""]","[""j"",""g""]"
"","","","","","html-keyboard-response","98","2.1.0","307602","null","<p style='color:green; font-size: 48px;'>+1</p>","null","","","","","","","","","","","",""
"","","","","","html-keyboard-response","99","2.1.0","308105","null","
    <div style=""text-align: center;"">
      <img src=""static/images/fix_cross.jpg"" style=""width: 400px; height: 400px; margin-bottom: 30px;"">
      <div style=""display: flex; justify-content: center; gap: 40px;"">
      <div style=""
        text-align: center;
        font-size: 24px;
        opacity: 0.3;
        border: 2px solid #999;
        border-radius: 8px;
        padding: 20px 15px;
        width: 60px;
        box-shadow: none;
      "">
        F<br>
      </div>
      <div style=""
