"success","timeout","failed_images","failed_audio","failed_video","trial_type","trial_index","plugin_version","time_elapsed","rt","stimulus","response","block","n_force_rep","phase","image","action","key_action_mapping","reward_probs","condition","reward","trial","subset","available_keys","attention_check"
"true","false","[]","[]","[]","preload","0","2.1.0","1512","","","","","","","","","","","","","","","",""
"true","","","","","fullscreen","1","2.1.0","10718","9102","","","","","","","","","","","","","","",""
"","","","","","html-keyboard-response","2","2.1.0","42205","31486","<h3 style=""font-size: 2em; "">Instruction 1/6</h3><p style=""text-align: left; line-height: 1.6em; font-size: 1.2em; max-width: 800px; margin: 0 auto; word-wrap: break-word;"">In this experiment, you will see a series of images on the screen.<br/><br/>You can respond to each image by pressing one of the following buttons on the keyboard:</p><div style=""display: flex; justify-content: center; gap: 40px; margin: 20px 0;"">
      <div style=""
        text-align: center;
        font-size: 24px;
        opacity: 1;
        border: 2px solid #000;
        border-radius: 8px;
        padding: 20px 15px;
        width: 60px;
        box-shadow: 0 0 10px #333;
      "">
        F<br>
      </div>
      <div style=""
        text-align: center;
        font-size: 24px;
        opacity: 1;
        border: 2px solid #000;
        border-radius: 8px;
        padding: 20px 15px;
        width: 60px;
        box-shadow: 0 0 10px #333;
      "">
        G<br>
      </div>
      <div style=""
        text-align: center;
        font-size: 24px;
        opacity: 1;
        border: 2px solid #000;
        border-radius: 8px;
        padding: 20px 15px;
        width: 60px;
        box-shadow: 0 0 10px #333;
      "">
        H<br>
      </div>
      <div style=""
        text-align: center;
        font-size: 24px;
        opacity: 1;
        border: 2px solid #000;
        border-radius: 8px;
        padding: 20px 15px;
        width: 60px;
        box-shadow: 0 0 10px #333;
      "">
        J<br>
      </div></div></div></div><p class=""continue"" style=""font-size: 1.2em; "">[Press SPACE to continue]</p>"," ","","","","","","","","","","","","",""
"","","","","","html-keyboard-response","3","2.1.0","57363","15157","<h3 style=""font-size: 2em; "">Instruction 2/6</h3><p style=""text-align: left; line-height: 1.6em; font-size: 1.2em; max-width: 800px; margin: 0 auto; word-wrap: break-word;"">Pressing a button in response to an image can give you <span style=""color:red;"">0</span> or <span style=""color:green;"">+1</span> points<br/>Your goal is to <b>collect as many points as possible!</b><br/><br/>How often you receive <span style=""color:red;"">0</span> or <span style=""color:green;"">+1</span> points <b>depends on each button and each image</b>: some will give you points more often, others rarely. <b>Try to figure it out!</b><br/></p></div><p class=""continue"" style=""font-size: 1.2em; "">[Press SPACE to continue]</p>"," ","","","","","","","","","","","","",""
"","","","","","html-keyboard-response","4","2.1.0","67485","10121","<h3 style=""font-size: 2em; "">Instruction 3/6</h3><p style=""text-align: left; line-height: 1.6em; font-size: 1.2em; max-width: 800px; margin: 0 auto; word-wrap: break-word;"">When the image is shown, you have <b>two seconds</b> to respond - make sure to answer in that time, or the trial is <b>lost!</b><br/>You will see a + sign between each trial. Keep your eyes on it to be ready to focus on the next image!<br/></p></div><p class=""continue"" style=""font-size: 1.2em; "">[Press SPACE to continue]</p>"," ","","","","","","","","","","","","",""
"","","","","","html-keyboard-response","5","2.1.0","78218","10732","<h3 style=""font-size: 2em; "">Instruction 4/6</h3><p style=""text-align: left; line-height: 1.6em; font-size: 1.2em; max-width: 800px; margin: 0 auto; word-wrap: break-word;"">For each image you will learn all four buttons on the keyboard.<br/><br/>However, you will not always be allowed to press all four buttons. You will see which are available under the image.<br/>For example, in this trial, only F and H are available - make sure you choose between <b>those two only</b>.<br/><div style=""display: flex; justify-content: center; gap: 40px; margin: 20px 0;"">
      <div style=""
        text-align: center;
        font-size: 24px;
        opacity: 1;
        border: 2px solid #000;
        border-radius: 8px;
        padding: 20px 15px;
        width: 60px;
        box-shadow: 0 0 10px #333;
      "">
        F<br>
      </div>
      <div style=""
        text-align: center;
        font-size: 24px;
        opacity: 0.3;
        border: 2px solid #999;
        border-radius: 8px;
        padding: 20px 15px;
        width: 60px;
        box-shadow: none;
      "">
        G<br>
      </div>
      <div style=""
        text-align: center;
        font-size: 24px;
        opacity: 1;
        border: 2px solid #000;
        border-radius: 8px;
        padding: 20px 15px;
        width: 60px;
        box-shadow: 0 0 10px #333;
      "">
        H<br>
      </div>
      <div style=""
        text-align: center;
        font-size: 24px;
        opacity: 0.3;
        border: 2px solid #999;
        border-radius: 8px;
        padding: 20px 15px;
        width: 60px;
        box-shadow: none;
      "">
        J<br>
      </div></div></div></p></div><p class=""continue"" style=""font-size: 1.2em; "">[Press SPACE to continue]</p>"," ","","","","","","","","","","","","",""
"","","","","","html-keyboard-response","6","2.1.0","88421","10202","<h3 style=""font-size: 2em; "">Instruction 5/6</h3><p style=""text-align: left; line-height: 1.6em; font-size: 1.2em; max-width: 800px; margin: 0 auto; word-wrap: break-word;"">There will be 12 blocks, each with just one image to learn about. You can take short breaks between each block.<br/><br/>Each block will have just one image, but to make sure you are paying attention, we will also show you occasionally an instruction to <b>press a specific button</b>, like shown below.<br/>Make sure you <b>press the correct button</b>.<br/></p></div><p class=""continue"" style=""font-size: 1.2em; "">[Press SPACE to continue]</p>"," ","","","","","","","","","","","","",""
"","","","","","html-keyboard-response","7","2.1.0","102859","14437","<h3 style=""font-size: 2em; "">Instruction 6/6</h3><p style=""text-align: left; line-height: 1.6em; font-size: 1.2em; max-width: 800px; margin: 0 auto; word-wrap: break-word;"">You will now start the main experiment.<br/>Before you start, please <b>position your dominant hand with one finger on each button</b>, and keep it there for the block duration!<br/></p></div><p class=""continue"" style=""font-size: 1.2em; "">[Press SPACE to continue]</p>"," ","","","","","","","","","","","","",""
"","","","","","html-keyboard-response","8","2.1.0","106518","3659","<h3 style=""font-size: 2em; "">Image 1</h3><p font-size: 1.2em;"">For the next trials, only single actions will be available.</p></div><p class=""continue"" style=""font-size: 1.2em; "">[Press SPACE to continue]</p>"," ","","","","","","","","","","","","",""
"","","","","","html-keyboard-response","9","2.1.0","107020","null","
    <div style=""text-align: center;"">
      <img src=""static/images/fix_cross.jpg"" style=""width: 400px; height: 400px; margin-bottom: 30px;"">
      <div style=""display: flex; justify-content: center; gap: 40px;"">
      <div style=""
        text-align: center;
        font-size: 24px;
        opacity: 0.3;
        border: 2px solid #999;
        border-radius: 8px;
        padding: 20px 15px;
        width: 60px;
        box-shadow: none;
      "">
        F<br>
      </div>
      <div style=""
        text-align: center;
        font-size: 24px;
        opacity: 0.3;
        border: 2px solid #999;
        border-radius: 8px;
        padding: 20px 15px;
        width: 60px;
        box-shadow: none;
      "">
        G<br>
      </div>
      <div style=""
        text-align: center;
        font-size: 24px;
        opacity: 0.3;
        border: 2px solid #999;
        border-radius: 8px;
        padding: 20px 15px;
        width: 60px;
        box-shadow: none;
      "">
        H<br>
      </div>
      <div style=""
        text-align: center;
        font-size: 24px;
        opacity: 1;
        border: 2px solid #000;
        border-radius: 8px;
        padding: 20px 15px;
        width: 60px;
        box-shadow: 0 0 10px #333;
      "">
        J<br>
      </div></div></div>","null","","","","","","","","","","","","",""
"","","","","","html-keyboard-response","10","2.1.0","108103","1082","
    <div style=""text-align: center;"">
      <img src=""static/images/8.jpg"" style=""width: 400px; height: 400px; margin-bottom: 30px;"">
      <div style=""display: flex; justify-content: center; gap: 40px;"">
      <div style=""
        text-align: center;
        font-size: 24px;
        opacity: 0.3;
        border: 2px solid #999;
        border-radius: 8px;
        padding: 20px 15px;
        width: 60px;
        box-shadow: none;
      "">
        F<br>
      </div>
      <div style=""
        text-align: center;
        font-size: 24px;
        opacity: 0.3;
        border: 2px solid #999;
        border-radius: 8px;
        padding: 20px 15px;
        width: 60px;
        box-shadow: none;
      "">
        G<br>
      </div>
      <div style=""
        text-align: center;
        font-size: 24px;
        opacity: 0.3;
        border: 2px solid #999;
        border-radius: 8px;
        padding: 20px 15px;
        width: 60px;
        box-shadow: none;
      "">
        H<br>
      </div>
      <div style=""
        text-align: center;
        font-size: 24px;
        opacity: 1;
        border: 2px solid #000;
        border-radius: 8px;
        padding: 20px 15px;
        width: 60px;
        box-shadow: 0 0 10px #333;
      "">
        J<br>
      </div></div></div>","j","1","0","fc","8","A1","{""A2"":""g"",""A3"":""h"",""A1"":""j"",""A4"":""f""}","{""A1"":0.8,""A2"":0.4,""A3"":0.5,""A4"":0.1}","Condition 1","1","","","",""
"","","","","","html-keyboard-response","11","2.1.0","109106","null","
    <div style=""text-align: center;"">
      <img src=""static/images/feedback_1.jpg"" style=""width: 400px; height: 400px; margin-bottom: 30px;"">
      <div style=""display: flex; justify-content: center; gap: 40px;"">
      <div style=""
        text-align: center;
        font-size: 24px;
        opacity: 0.3;
        border: 2px solid #999;
        border-radius: 8px;
        padding: 20px 15px;
        width: 60px;
        box-shadow: none;
      "">
        F<br>
      </div>
      <div style=""
        text-align: center;
        font-size: 24px;
        opacity: 0.3;
        border: 2px solid #999;
        border-radius: 8px;
        padding: 20px 15px;
        width: 60px;
        box-shadow: none;
      "">
        G<br>
      </div>
      <div style=""
        text-align: center;
        font-size: 24px;
        opacity: 0.3;
        border: 2px solid #999;
        border-radius: 8px;
        padding: 20px 15px;
        width: 60px;
        box-shadow: none;
      "">
        H<br>
      </div>
      <div style=""
        text-align: center;
        font-size: 24px;
        opacity: 1;
        border: 2px solid #000;
        border-radius: 8px;
        padding: 20px 15px;
        width: 60px;
        box-shadow: 0 0 10px #333;
      "">
        J<br>
      </div></div></div>","null","","","","","","","","","","","","",""
"","","","","","html-keyboard-response","12","2.1.0","109608","null","
    <div style=""text-align: center;"">
      <img src=""static/images/fix_cross.jpg"" style=""width: 400px; height: 400px; margin-bottom: 30px;"">
      <div style=""display: flex; justify-content: center; gap: 40px;"">
      <div style=""
        text-align: center;
        font-size: 24px;
        opacity: 0.3;
        border: 2px solid #999;
        border-radius: 8px;
        padding: 20px 15px;
        width: 60px;
        box-shadow: none;
      "">
        F<br>
      </div>
      <div style=""
        text-align: center;
        font-size: 24px;
        opacity: 0.3;
        border: 2px solid #999;
        border-radius: 8px;
        padding: 20px 15px;
        width: 60px;
        box-shadow: none;
      "">
        G<br>
      </div>
      <div style=""
        text-align: center;
        font-size: 24px;
        opacity: 0.3;
        border: 2px solid #999;
        border-radius: 8px;
        padding: 20px 15px;
        width: 60px;
        box-shadow: none;
      "">
        H<br>
      </div>
      <div style=""
        text-align: center;
        font-size: 24px;
        opacity: 1;
        border: 2px solid #000;
        border-radius: 8px;
        padding: 20px 15px;
        width: 60px;
        box-shadow: 0 0 10px #333;
      "">
        J<br>
      </div></div></div>","null","","","","","","","","","","","","",""
"","","","","","html-keyboard-response","13","2.1.0","110267","657","
    <div style=""text-align: center;"">
      <img src=""static/images/8.jpg"" style=""width: 400px; height: 400px; margin-bottom: 30px;"">
      <div style=""display: flex; justify-content: center; gap: 40px;"">
      <div style=""
        text-align: center;
        font-size: 24px;
        opacity: 0.3;
        border: 2px solid #999;
        border-radius: 8px;
        padding: 20px 15px;
        width: 60px;
        box-shadow: none;
      "">
        F<br>
      </div>
      <div style=""
        text-align: center;
        font-size: 24px;
        opacity: 0.3;
        border: 2px solid #999;
        border-radius: 8px;
        padding: 20px 15px;
        width: 60px;
        box-shadow: none;
      "">
        G<br>
      </div>
      <div style=""
        text-align: center;
        font-size: 24px;
        opacity: 0.3;
        border: 2px solid #999;
        border-radius: 8px;
        padding: 20px 15px;
        width: 60px;
        box-shadow: none;
      "">
        H<br>
      </div>
      <div style=""
        text-align: center;
        font-size: 24px;
        opacity: 1;
        border: 2px solid #000;
        border-radius: 8px;
        padding: 20px 15px;
        width: 60px;
        box-shadow: 0 0 10px #333;
      "">
        J<br>
      </div></div></div>","j","1","1","fc","8","A1","{""A2"":""g"",""A3"":""h"",""A1"":""j"",""A4"":""f""}","{""A1"":0.8,""A2"":0.4,""A3"":0.5,""A4"":0.1}","Condition 1","1","","","",""
"","","","","","html-keyboard-response","14","2.1.0","111269","null","
    <div style=""text-align: center;"">
      <img src=""static/images/feedback_1.jpg"" style=""width: 400px; height: 400px; margin-bottom: 30px;"">
      <div style=""display: flex; justify-content: center; gap: 40px;"">
      <div style=""
        text-align: center;
        font-size: 24px;
        opacity: 0.3;
        border: 2px solid #999;
        border-radius: 8px;
        padding: 20px 15px;
        width: 60px;
        box-shadow: none;
      "">
        F<br>
      </div>
      <div style=""
        text-align: center;
        font-size: 24px;
        opacity: 0.3;
        border: 2px solid #999;
        border-radius: 8px;
        padding: 20px 15px;
        width: 60px;
        box-shadow: none;
      "">
        G<br>
      </div>
      <div style=""
        text-align: center;
        font-size: 24px;
        opacity: 0.3;
        border: 2px solid #999;
        border-radius: 8px;
        padding: 20px 15px;
        width: 60px;
        box-shadow: none;
      "">
        H<br>
      </div>
      <div style=""
        text-align: center;
        font-size: 24px;
        opacity: 1;
        border: 2px solid #000;
        border-radius: 8px;
        padding: 20px 15px;
        width: 60px;
        box-shadow: 0 0 10px #333;
      "">
        J<br>
      </div></div></div>","null","","","","","","","","","","","","",""
"","","","","","html-keyboard-response","15","2.1.0","111771","null","
    <div style=""text-align: center;"">
      <img src=""static/images/fix_cross.jpg"" style=""width: 400px; height: 400px; margin-bottom: 30px;"">
      <div style=""display: flex; justify-content: center; gap: 40px;"">
      <div style=""
        text-align: center;
        font-size: 24px;
        opacity: 0.3;
        border: 2px solid #999;
        border-radius: 8px;
        padding: 20px 15px;
        width: 60px;
        box-shadow: none;
      "">
        F<br>
      </div>
      <div style=""
        text-align: center;
        font-size: 24px;
        opacity: 0.3;
        border: 2px solid #999;
        border-radius: 8px;
        padding: 20px 15px;
        width: 60px;
        box-shadow: none;
      "">
        G<br>
      </div>
      <div style=""
        text-align: center;
        font-size: 24px;
        opacity: 0.3;
        border: 2px solid #999;
        border-radius: 8px;
        padding: 20px 15px;
        width: 60px;
        box-shadow: none;
      "">
        H<br>
      </div>
      <div style=""
        text-align: center;
        font-size: 24px;
        opacity: 1;
        border: 2px solid #000;
        border-radius: 8px;
        padding: 20px 15px;
        width: 60px;
        box-shadow: 0 0 10px #333;
      "">
        J<br>
      </div></div></div>","null","","","","","","","","","","","","",""
"","","","","","html-keyboard-response","16","2.1.0","112147","374","
    <div style=""text-align: center;"">
      <img src=""static/images/8.jpg"" style=""width: 400px; height: 400px; margin-bottom: 30px;"">
      <div style=""display: flex; justify-content: center; gap: 40px;"">
      <div style=""
        text-align: center;
        font-size: 24px;
        opacity: 0.3;
        border: 2px solid #999;
        border-radius: 8px;
        padding: 20px 15px;
        width: 60px;
        box-shadow: none;
      "">
        F<br>
      </div>
      <div style=""
        text-align: center;
        font-size: 24px;
        opacity: 0.3;
        border: 2px solid #999;
        border-radius: 8px;
        padding: 20px 15px;
        width: 60px;
        box-shadow: none;
      "">
        G<br>
      </div>
      <div style=""
        text-align: center;
        font-size: 24px;
        opacity: 0.3;
        border: 2px solid #999;
        border-radius: 8px;
        padding: 20px 15px;
        width: 60px;
        box-shadow: none;
      "">
        H<br>
      </div>
      <div style=""
        text-align: center;
        font-size: 24px;
        opacity: 1;
        border: 2px solid #000;
        border-radius: 8px;
        padding: 20px 15px;
        width: 60px;
        box-shadow: 0 0 10px #333;
      "">
        J<br>
      </div></div></div>","j","1","2","fc","8","A1","{""A2"":""g"",""A3"":""h"",""A1"":""j"",""A4"":""f""}","{""A1"":0.8,""A2"":0.4,""A3"":0.5,""A4"":0.1}","Condition 1","1","","","",""
"","","","","","html-keyboard-response","17","2.1.0","113148","null","
    <div style=""text-align: center;"">
      <img src=""static/images/feedback_1.jpg"" style=""width: 400px; height: 400px; margin-bottom: 30px;"">
      <div style=""display: flex; justify-content: center; gap: 40px;"">
      <div style=""
        text-align: center;
        font-size: 24px;
        opacity: 0.3;
        border: 2px solid #999;
        border-radius: 8px;
        padding: 20px 15px;
        width: 60px;
        box-shadow: none;
      "">
        F<br>
      </div>
      <div style=""
        text-align: center;
        font-size: 24px;
        opacity: 0.3;
        border: 2px solid #999;
        border-radius: 8px;
        padding: 20px 15px;
        width: 60px;
        box-shadow: none;
      "">
        G<br>
      </div>
      <div style=""
        text-align: center;
        font-size: 24px;
        opacity: 0.3;
        border: 2px solid #999;
        border-radius: 8px;
        padding: 20px 15px;
        width: 60px;
        box-shadow: none;
      "">
        H<br>
      </div>
      <div style=""
        text-align: center;
        font-size: 24px;
        opacity: 1;
        border: 2px solid #000;
        border-radius: 8px;
        padding: 20px 15px;
        width: 60px;
        box-shadow: 0 0 10px #333;
      "">
        J<br>
      </div></div></div>","null","","","","","","","","","","","","",""
"","","","","","html-keyboard-response","18","2.1.0","113652","null","
    <div style=""text-align: center;"">
      <img src=""static/images/fix_cross.jpg"" style=""width: 400px; height: 400px; margin-bottom: 30px;"">
      <div style=""display: flex; justify-content: center; gap: 40px;"">
      <div style=""
        text-align: center;
        font-size: 24px;
        opacity: 0.3;
        border: 2px solid #999;
        border-radius: 8px;
        padding: 20px 15px;
        width: 60px;
        box-shadow: none;
      "">
        F<br>
      </div>
      <div style=""
        text-align: center;
        font-size: 24px;
        opacity: 0.3;
        border: 2px solid #999;
        border-radius: 8px;
        padding: 20px 15px;
        width: 60px;
        box-shadow: none;
      "">
        G<br>
      </div>
      <div style=""
        text-align: center;
        font-size: 24px;
        opacity: 0.3;
        border: 2px solid #999;
        border-radius: 8px;
        padding: 20px 15px;
        width: 60px;
        box-shadow: none;
      "">
        H<br>
      </div>
      <div style=""
        text-align: center;
        font-size: 24px;
        opacity: 1;
        border: 2px solid #000;
        border-radius: 8px;
        padding: 20px 15px;
        width: 60px;
        box-shadow: 0 0 10px #333;
      "">
        J<br>
      </div></div></div>","null","","","","","","","","","","","","",""
"","","","","","html-keyboard-response","19","2.1.0","113976","324","
    <div style=""text-align: center;"">
      <img src=""static/images/8.jpg"" style=""width: 400px; height: 400px; margin-bottom: 30px;"">
      <div style=""display: flex; justify-content: center; gap: 40px;"">
      <div style=""
        text-align: center;
        font-size: 24px;
        opacity: 0.3;
        border: 2px solid #999;
        border-radius: 8px;
        padding: 20px 15px;
        width: 60px;
        box-shadow: none;
      "">
        F<br>
      </div>
      <div style=""
        text-align: center;
        font-size: 24px;
        opacity: 0.3;
        border: 2px solid #999;
        border-radius: 8px;
        padding: 20px 15px;
        width: 60px;
        box-shadow: none;
      "">
        G<br>
      </div>
      <div style=""
        text-align: center;
        font-size: 24px;
        opacity: 0.3;
        border: 2px solid #999;
        border-radius: 8px;
        padding: 20px 15px;
        width: 60px;
        box-shadow: none;
      "">
        H<br>
      </div>
      <div style=""
        text-align: center;
        font-size: 24px;
        opacity: 1;
        border: 2px solid #000;
        border-radius: 8px;
        padding: 20px 15px;
        width: 60px;
        box-shadow: 0 0 10px #333;
      "">
        J<br>
      </div></div></div>","j","1","3","fc","8","A1","{""A2"":""g"",""A3"":""h"",""A1"":""j"",""A4"":""f""}","{""A1"":0.8,""A2"":0.4,""A3"":0.5,""A4"":0.1}","Condition 1","1","","","",""
"","","","","","html-keyboard-response","20","2.1.0","114979","null","
    <div style=""text-align: center;"">
      <img src=""static/images/feedback_1.jpg"" style=""width: 400px; height: 400px; margin-bottom: 30px;"">
      <div style=""display: flex; justify-content: center; gap: 40px;"">
      <div style=""
        text-align: center;
        font-size: 24px;
        opacity: 0.3;
        border: 2px solid #999;
        border-radius: 8px;
        padding: 20px 15px;
        width: 60px;
        box-shadow: none;
      "">
        F<br>
      </div>
      <div style=""
        text-align: center;
        font-size: 24px;
        opacity: 0.3;
        border: 2px solid #999;
        border-radius: 8px;
        padding: 20px 15px;
        width: 60px;
        box-shadow: none;
      "">
        G<br>
      </div>
      <div style=""
        text-align: center;
        font-size: 24px;
        opacity: 0.3;
        border: 2px solid #999;
        border-radius: 8px;
        padding: 20px 15px;
        width: 60px;
        box-shadow: none;
      "">
        H<br>
      </div>
      <div style=""
        text-align: center;
        font-size: 24px;
        opacity: 1;
        border: 2px solid #000;
        border-radius: 8px;
        padding: 20px 15px;
        width: 60px;
        box-shadow: 0 0 10px #333;
      "">
        J<br>
      </div></div></div>","null","","","","","","","","","","","","",""
"","","","","","html-keyboard-response","21","2.1.0","115482","null","
    <div style=""text-align: center;"">
      <img src=""static/images/fix_cross.jpg"" style=""width: 400px; height: 400px; margin-bottom: 30px;"">
      <div style=""display: flex; justify-content: center; gap: 40px;"">
      <div style=""
        text-align: center;
        font-size: 24px;
        opacity: 0.3;
        border: 2px solid #999;
        border-radius: 8px;
        padding: 20px 15px;
        width: 60px;
        box-shadow: none;
      "">
        F<br>
      </div>
      <div style=""
        text-align: center;
        font-size: 24px;
        opacity: 0.3;
        border: 2px solid #999;
        border-radius: 8px;
        padding: 20px 15px;
        width: 60px;
        box-shadow: none;
      "">
        G<br>
      </div>
      <div style=""
        text-align: center;
        font-size: 24px;
        opacity: 0.3;
        border: 2px solid #999;
        border-radius: 8px;
        padding: 20px 15px;
        width: 60px;
        box-shadow: none;
      "">
        H<br>
      </div>
      <div style=""
        text-align: center;
        font-size: 24px;
        opacity: 1;
        border: 2px solid #000;
        border-radius: 8px;
        padding: 20px 15px;
        width: 60px;
        box-shadow: 0 0 10px #333;
      "">
        J<br>
      </div></div></div>","null","","","","","","","","","","","","",""
"","","","","","html-keyboard-response","22","2.1.0","115872","389","
    <div style=""text-align: center;"">
      <img src=""static/images/8.jpg"" style=""width: 400px; height: 400px; margin-bottom: 30px;"">
      <div style=""display: flex; justify-content: center; gap: 40px;"">
      <div style=""
        text-align: center;
        font-size: 24px;
        opacity: 0.3;
        border: 2px solid #999;
        border-radius: 8px;
        padding: 20px 15px;
        width: 60px;
        box-shadow: none;
      "">
        F<br>
      </div>
      <div style=""
        text-align: center;
        font-size: 24px;
        opacity: 0.3;
        border: 2px solid #999;
        border-radius: 8px;
        padding: 20px 15px;
        width: 60px;
        box-shadow: none;
      "">
        G<br>
      </div>
      <div style=""
        text-align: center;
        font-size: 24px;
        opacity: 0.3;
        border: 2px solid #999;
        border-radius: 8px;
        padding: 20px 15px;
        width: 60px;
        box-shadow: none;
      "">
        H<br>
      </div>
      <div style=""
        text-align: center;
        font-size: 24px;
        opacity: 1;
        border: 2px solid #000;
        border-radius: 8px;
        padding: 20px 15px;
        width: 60px;
        box-shadow: 0 0 10px #333;
      "">
        J<br>
      </div></div></div>","j","1","4","fc","8","A1","{""A2"":""g"",""A3"":""h"",""A1"":""j"",""A4"":""f""}","{""A1"":0.8,""A2"":0.4,""A3"":0.5,""A4"":0.1}","Condition 1","0","","","",""
"","","","","","html-keyboard-response","23","2.1.0","116874","null","
    <div style=""text-align: center;"">
      <img src=""static/images/feedback_0.jpg"" style=""width: 400px; height: 400px; margin-bottom: 30px;"">
      <div style=""display: flex; justify-content: center; gap: 40px;"">
      <div style=""
        text-align: center;
        font-size: 24px;
        opacity: 0.3;
        border: 2px solid #999;
        border-radius: 8px;
        padding: 20px 15px;
        width: 60px;
        box-shadow: none;
      "">
        F<br>
      </div>
      <div style=""
        text-align: center;
        font-size: 24px;
        opacity: 0.3;
        border: 2px solid #999;
        border-radius: 8px;
        padding: 20px 15px;
        width: 60px;
        box-shadow: none;
      "">
        G<br>
      </div>
      <div style=""
        text-align: center;
        font-size: 24px;
        opacity: 0.3;
        border: 2px solid #999;
        border-radius: 8px;
        padding: 20px 15px;
        width: 60px;
        box-shadow: none;
      "">
        H<br>
      </div>
      <div style=""
        text-align: center;
        font-size: 24px;
        opacity: 1;
        border: 2px solid #000;
        border-radius: 8px;
        padding: 20px 15px;
        width: 60px;
        box-shadow: 0 0 10px #333;
      "">
        J<br>
      </div></div></div>","null","","","","","","","","","","","","",""
"","","","","","html-keyboard-response","24","2.1.0","117376","null","
    <div style=""text-align: center;"">
      <img src=""static/images/fix_cross.jpg"" style=""width: 400px; height: 400px; margin-bottom: 30px;"">
      <div style=""display: flex; justify-content: center; gap: 40px;"">
      <div style=""
        text-align: center;
        font-size: 24px;
        opacity: 0.3;
        border: 2px solid #999;
        border-radius: 8px;
        padding: 20px 15px;
        width: 60px;
        box-shadow: none;
      "">
        F<br>
      </div>
      <div style=""
        text-align: center;
        font-size: 24px;
        opacity: 1;
        border: 2px solid #000;
        border-radius: 8px;
        padding: 20px 15px;
        width: 60px;
        box-shadow: 0 0 10px #333;
      "">
        G<br>
      </div>
      <div style=""
        text-align: center;
        font-size: 24px;
        opacity: 0.3;
        border: 2px solid #999;
        border-radius: 8px;
        padding: 20px 15px;
        width: 60px;
        box-shadow: none;
      "">
        H<br>
      </div>
      <div style=""
        text-align: center;
        font-size: 24px;
        opacity: 0.3;
        border: 2px solid #999;
        border-radius: 8px;
        padding: 20px 15px;
        width: 60px;
        box-shadow: none;
      "">
        J<br>
      </div></div></div>","null","","","","","","","","","","","","",""
"","","","","","html-keyboard-response","25","2.1.0","118751","1374","
    <div style=""text-align: center;"">
      <img src=""static/images/8.jpg"" style=""width: 400px; height: 400px; margin-bottom: 30px;"">
      <div style=""display: flex; justify-content: center; gap: 40px;"">
      <div style=""
        text-align: center;
        font-size: 24px;
        opacity: 0.3;
        border: 2px solid #999;
        border-radius: 8px;
        padding: 20px 15px;
        width: 60px;
        box-shadow: none;
      "">
        F<br>
      </div>
      <div style=""
        text-align: center;
        font-size: 24px;
        opacity: 1;
        border: 2px solid #000;
        border-radius: 8px;
        padding: 20px 15px;
        width: 60px;
        box-shadow: 0 0 10px #333;
      "">
        G<br>
      </div>
      <div style=""
        text-align: center;
        font-size: 24px;
        opacity: 0.3;
        border: 2px solid #999;
        border-radius: 8px;
        padding: 20px 15px;
        width: 60px;
        box-shadow: none;
      "">
        H<br>
      </div>
      <div style=""
        text-align: center;
        font-size: 24px;
        opacity: 0.3;
        border: 2px solid #999;
        border-radius: 8px;
        padding: 20px 15px;
        width: 60px;
        box-shadow: none;
      "">
        J<br>
      </div></div></div>","g","1","0","fc","8","A2","{""A2"":""g"",""A3"":""h"",""A1"":""j"",""A4"":""f""}","{""A1"":0.8,""A2"":0.4,""A3"":0.5,""A4"":0.1}","Condition 1","0","","","",""
"","","","","","html-keyboard-response","26","2.1.0","119753","null","
    <div style=""text-align: center;"">
      <img src=""static/images/feedback_0.jpg"" style=""width: 400px; height: 400px; margin-bottom: 30px;"">
      <div style=""display: flex; justify-content: center; gap: 40px;"">
      <div style=""
        text-align: center;
        font-size: 24px;
        opacity: 0.3;
        border: 2px solid #999;
        border-radius: 8px;
        padding: 20px 15px;
        width: 60px;
        box-shadow: none;
      "">
        F<br>
      </div>
      <div style=""
        text-align: center;
        font-size: 24px;
        opacity: 1;
        border: 2px solid #000;
        border-radius: 8px;
        padding: 20px 15px;
        width: 60px;
        box-shadow: 0 0 10px #333;
      "">
        G<br>
      </div>
      <div style=""
        text-align: center;
        font-size: 24px;
        opacity: 0.3;
        border: 2px solid #999;
        border-radius: 8px;
        padding: 20px 15px;
        width: 60px;
        box-shadow: none;
      "">
        H<br>
      </div>
      <div style=""
        text-align: center;
        font-size: 24px;
        opacity: 0.3;
        border: 2px solid #999;
        border-radius: 8px;
        padding: 20px 15px;
        width: 60px;
        box-shadow: none;
      "">
        J<br>
      </div></div></div>","null","","","","","","","","","","","","",""
"","","","","","html-keyboard-response","27","2.1.0","120255","null","
    <div style=""text-align: center;"">
      <img src=""static/images/fix_cross.jpg"" style=""width: 400px; height: 400px; margin-bottom: 30px;"">
      <div style=""display: flex; justify-content: center; gap: 40px;"">
      <div style=""
        text-align: center;
        font-size: 24px;
        opacity: 0.3;
        border: 2px solid #999;
        border-radius: 8px;
        padding: 20px 15px;
        width: 60px;
        box-shadow: none;
      "">
        F<br>
      </div>
      <div style=""
        text-align: center;
        font-size: 24px;
        opacity: 1;
        border: 2px solid #000;
        border-radius: 8px;
        padding: 20px 15px;
        width: 60px;
        box-shadow: 0 0 10px #333;
      "">
        G<br>
      </div>
      <div style=""
        text-align: center;
        font-size: 24px;
        opacity: 0.3;
        border: 2px solid #999;
        border-radius: 8px;
        padding: 20px 15px;
        width: 60px;
        box-shadow: none;
      "">
        H<br>
      </div>
      <div style=""
        text-align: center;
        font-size: 24px;
        opacity: 0.3;
        border: 2px solid #999;
        border-radius: 8px;
        padding: 20px 15px;
        width: 60px;
        box-shadow: none;
      "">
        J<br>
      </div></div></div>","null","","","","","","","","","","","","",""
"","","","","","html-keyboard-response","28","2.1.0","120890","634","
    <div style=""text-align: center;"">
      <img src=""static/images/8.jpg"" style=""width: 400px; height: 400px; margin-bottom: 30px;"">
      <div style=""display: flex; justify-content: center; gap: 40px;"">
      <div style=""
        text-align: center;
        font-size: 24px;
        opacity: 0.3;
        border: 2px solid #999;
        border-radius: 8px;
        padding: 20px 15px;
        width: 60px;
        box-shadow: none;
      "">
        F<br>
      </div>
      <div style=""
        text-align: center;
        font-size: 24px;
        opacity: 1;
        border: 2px solid #000;
        border-radius: 8px;
        padding: 20px 15px;
        width: 60px;
        box-shadow: 0 0 10px #333;
      "">
        G<br>
      </div>
      <div style=""
        text-align: center;
        font-size: 24px;
        opacity: 0.3;
        border: 2px solid #999;
        border-radius: 8px;
        padding: 20px 15px;
        width: 60px;
        box-shadow: none;
      "">
        H<br>
      </div>
      <div style=""
        text-align: center;
        font-size: 24px;
        opacity: 0.3;
        border: 2px solid #999;
        border-radius: 8px;
        padding: 20px 15px;
        width: 60px;
        box-shadow: none;
      "">
        J<br>
      </div></div></div>","g","1","1","fc","8","A2","{""A2"":""g"",""A3"":""h"",""A1"":""j"",""A4"":""f""}","{""A1"":0.8,""A2"":0.4,""A3"":0.5,""A4"":0.1}","Condition 1","1","","","",""
"","","","","","html-keyboard-response","29","2.1.0","121893","null","
    <div style=""text-align: center;"">
      <img src=""static/images/feedback_1.jpg"" style=""width: 400px; height: 400px; margin-bottom: 30px;"">
      <div style=""display: flex; justify-content: center; gap: 40px;"">
      <div style=""
        text-align: center;
        font-size: 24px;
        opacity: 0.3;
        border: 2px solid #999;
        border-radius: 8px;
        padding: 20px 15px;
        width: 60px;
        box-shadow: none;
      "">
        F<br>
      </div>
      <div style=""
        text-align: center;
        font-size: 24px;
        opacity: 1;
        border: 2px solid #000;
        border-radius: 8px;
        padding: 20px 15px;
        width: 60px;
        box-shadow: 0 0 10px #333;
      "">
        G<br>
      </div>
      <div style=""
        text-align: center;
        font-size: 24px;
        opacity: 0.3;
        border: 2px solid #999;
        border-radius: 8px;
        padding: 20px 15px;
        width: 60px;
        box-shadow: none;
      "">
        H<br>
      </div>
      <div style=""
        text-align: center;
        font-size: 24px;
        opacity: 0.3;
        border: 2px solid #999;
        border-radius: 8px;
        padding: 20px 15px;
        width: 60px;
        box-shadow: none;
      "">
        J<br>
      </div></div></div>","null","","","","","","","","","","","","",""
"","","","","","html-keyboard-response","30","2.1.0","122395","null","
    <div style=""text-align: center;"">
      <img src=""static/images/fix_cross.jpg"" style=""width: 400px; height: 400px; margin-bottom: 30px;"">
      <div style=""display: flex; justify-content: center; gap: 40px;"">
      <div style=""
        text-align: center;
        font-size: 24px;
        opacity: 0.3;
        border: 2px solid #999;
        border-radius: 8px;
        padding: 20px 15px;
        width: 60px;
        box-shadow: none;
      "">
        F<br>
      </div>
      <div style=""
        text-align: center;
        font-size: 24px;
        opacity: 1;
        border: 2px solid #000;
        border-radius: 8px;
        padding: 20px 15px;
        width: 60px;
        box-shadow: 0 0 10px #333;
      "">
        G<br>
      </div>
      <div style=""
        text-align: center;
        font-size: 24px;
        opacity: 0.3;
        border: 2px solid #999;
        border-radius: 8px;
        padding: 20px 15px;
        width: 60px;
        box-shadow: none;
      "">
        H<br>
      </div>
      <div style=""
        text-align: center;
        font-size: 24px;
        opacity: 0.3;
        border: 2px solid #999;
        border-radius: 8px;
        padding: 20px 15px;
        width: 60px;
        box-shadow: none;
      "">
        J<br>
      </div></div></div>","null","","","","","","","","","","","","",""
"","","","","","html-keyboard-response","31","2.1.0","122705","309","
    <div style=""text-align: center;"">
      <img src=""static/images/8.jpg"" style=""width: 400px; height: 400px; margin-bottom: 30px;"">
      <div style=""display: flex; justify-content: center; gap: 40px;"">
      <div style=""
        text-align: center;
        font-size: 24px;
        opacity: 0.3;
        border: 2px solid #999;
        border-radius: 8px;
        padding: 20px 15px;
        width: 60px;
        box-shadow: none;
      "">
        F<br>
      </div>
      <div style=""
        text-align: center;
        font-size: 24px;
        opacity: 1;
        border: 2px solid #000;
        border-radius: 8px;
        padding: 20px 15px;
        width: 60px;
        box-shadow: 0 0 10px #333;
      "">
        G<br>
      </div>
      <div style=""
        text-align: center;
        font-size: 24px;
        opacity: 0.3;
        border: 2px solid #999;
        border-radius: 8px;
        padding: 20px 15px;
        width: 60px;
        box-shadow: none;
      "">
        H<br>
      </div>
      <div style=""
        text-align: center;
        font-size: 24px;
        opacity: 0.3;
        border: 2px solid #999;
        border-radius: 8px;
        padding: 20px 15px;
        width: 60px;
        box-shadow: none;
      "">
        J<br>
      </div></div></div>","g","1","2","fc","8","A2","{""A2"":""g"",""A3"":""h"",""A1"":""j"",""A4"":""f""}","{""A1"":0.8,""A2"":0.4,""A3"":0.5,""A4"":0.1}","Condition 1","0","","","",""
"","","","","","html-keyboard-response","32","2.1.0","123708","null","
    <div style=""text-align: center;"">
      <img src=""static/images/feedback_0.jpg"" style=""width: 400px; height: 400px; margin-bottom: 30px;"">
      <div style=""display: flex; justify-content: center; gap: 40px;"">
      <div style=""
        text-align: center;
        font-size: 24px;
        opacity: 0.3;
        border: 2px solid #999;
        border-radius: 8px;
        padding: 20px 15px;
        width: 60px;
        box-shadow: none;
      "">
        F<br>
      </div>
      <div style=""
        text-align: center;
        font-size: 24px;
        opacity: 1;
        border: 2px solid #000;
        border-radius: 8px;
        padding: 20px 15px;
        width: 60px;
        box-shadow: 0 0 10px #333;
      "">
        G<br>
      </div>
      <div style=""
        text-align: center;
        font-size: 24px;
        opacity: 0.3;
        border: 2px solid #999;
        border-radius: 8px;
        padding: 20px 15px;
        width: 60px;
        box-shadow: none;
      "">
        H<br>
      </div>
      <div style=""
        text-align: center;
        font-size: 24px;
        opacity: 0.3;
        border: 2px solid #999;
        border-radius: 8px;
        padding: 20px 15px;
        width: 60px;
        box-shadow: none;
      "">
        J<br>
      </div></div></div>","null","","","","","","","","","","","","",""
"","","","","","html-keyboard-response","33","2.1.0","124210","null","
    <div style=""text-align: center;"">
      <img src=""static/images/fix_cross.jpg"" style=""width: 400px; height: 400px; margin-bottom: 30px;"">
      <div style=""display: flex; justify-content: center; gap: 40px;"">
      <div style=""
        text-align: center;
        font-size: 24px;
        opacity: 0.3;
        border: 2px solid #999;
        border-radius: 8px;
        padding: 20px 15px;
        width: 60px;
        box-shadow: none;
      "">
        F<br>
      </div>
      <div style=""
        text-align: center;
        font-size: 24px;
        opacity: 1;
        border: 2px solid #000;
        border-radius: 8px;
        padding: 20px 15px;
        width: 60px;
        box-shadow: 0 0 10px #333;
      "">
        G<br>
      </div>
      <div style=""
        text-align: center;
        font-size: 24px;
        opacity: 0.3;
        border: 2px solid #999;
        border-radius: 8px;
        padding: 20px 15px;
        width: 60px;
        box-shadow: none;
      "">
        H<br>
      </div>
      <div style=""
        text-align: center;
        font-size: 24px;
        opacity: 0.3;
        border: 2px solid #999;
        border-radius: 8px;
        padding: 20px 15px;
        width: 60px;
        box-shadow: none;
      "">
        J<br>
      </div></div></div>","null","","","","","","","","","","","","",""
"","","","","","html-keyboard-response","34","2.1.0","124906","695","
    <div style=""text-align: center;"">
      <img src=""static/images/8.jpg"" style=""width: 400px; height: 400px; margin-bottom: 30px;"">
      <div style=""display: flex; justify-content: center; gap: 40px;"">
      <div style=""
        text-align: center;
        font-size: 24px;
        opacity: 0.3;
        border: 2px solid #999;
        border-radius: 8px;
        padding: 20px 15px;
        width: 60px;
        box-shadow: none;
      "">
        F<br>
      </div>
      <div style=""
        text-align: center;
        font-size: 24px;
        opacity: 1;
        border: 2px solid #000;
        border-radius: 8px;
        padding: 20px 15px;
        width: 60px;
        box-shadow: 0 0 10px #333;
      "">
        G<br>
      </div>
      <div style=""
        text-align: center;
        font-size: 24px;
        opacity: 0.3;
        border: 2px solid #999;
        border-radius: 8px;
        padding: 20px 15px;
        width: 60px;
        box-shadow: none;
      "">
        H<br>
      </div>
      <div style=""
        text-align: center;
        font-size: 24px;
        opacity: 0.3;
        border: 2px solid #999;
        border-radius: 8px;
        padding: 20px 15px;
        width: 60px;
        box-shadow: none;
      "">
        J<br>
      </div></div></div>","g","1","3","fc","8","A2","{""A2"":""g"",""A3"":""h"",""A1"":""j"",""A4"":""f""}","{""A1"":0.8,""A2"":0.4,""A3"":0.5,""A4"":0.1}","Condition 1","1","","","",""
"","","","","","html-keyboard-response","35","2.1.0","125908","null","
    <div style=""text-align: center;"">
      <img src=""static/images/feedback_1.jpg"" style=""width: 400px; height: 400px; margin-bottom: 30px;"">
      <div style=""display: flex; justify-content: center; gap: 40px;"">
      <div style=""
        text-align: center;
        font-size: 24px;
        opacity: 0.3;
        border: 2px solid #999;
        border-radius: 8px;
        padding: 20px 15px;
        width: 60px;
        box-shadow: none;
      "">
        F<br>
      </div>
      <div style=""
        text-align: center;
        font-size: 24px;
        opacity: 1;
        border: 2px solid #000;
        border-radius: 8px;
        padding: 20px 15px;
        width: 60px;
        box-shadow: 0 0 10px #333;
      "">
        G<br>
      </div>
      <div style=""
        text-align: center;
        font-size: 24px;
        opacity: 0.3;
        border: 2px solid #999;
        border-radius: 8px;
        padding: 20px 15px;
        width: 60px;
        box-shadow: none;
      "">
        H<br>
      </div>
      <div style=""
        text-align: center;
        font-size: 24px;
        opacity: 0.3;
        border: 2px solid #999;
        border-radius: 8px;
        padding: 20px 15px;
        width: 60px;
        box-shadow: none;
      "">
        J<br>
      </div></div></div>","null","","","","","","","","","","","","",""
"","","","","","html-keyboard-response","36","2.1.0","126410","null","
    <div style=""text-align: center;"">
      <img src=""static/images/fix_cross.jpg"" style=""width: 400px; height: 400px; margin-bottom: 30px;"">
      <div style=""display: flex; justify-content: center; gap: 40px;"">
      <div style=""
        text-align: center;
        font-size: 24px;
        opacity: 0.3;
        border: 2px solid #999;
        border-radius: 8px;
        padding: 20px 15px;
        width: 60px;
        box-shadow: none;
      "">
        F<br>
      </div>
      <div style=""
        text-align: center;
        font-size: 24px;
        opacity: 1;
        border: 2px solid #000;
        border-radius: 8px;
        padding: 20px 15px;
        width: 60px;
        box-shadow: 0 0 10px #333;
      "">
        G<br>
      </div>
      <div style=""
        text-align: center;
        font-size: 24px;
        opacity: 0.3;
        border: 2px solid #999;
        border-radius: 8px;
        padding: 20px 15px;
        width: 60px;
        box-shadow: none;
      "">
        H<br>
      </div>
      <div style=""
        text-align: center;
        font-size: 24px;
        opacity: 0.3;
        border: 2px solid #999;
        border-radius: 8px;
        padding: 20px 15px;
        width: 60px;
        box-shadow: none;
      "">
        J<br>
      </div></div></div>","null","","","","","","","","","","","","",""
"","","","","","html-keyboard-response","37","2.1.0","126973","561","
    <div style=""text-align: center;"">
      <img src=""static/images/8.jpg"" style=""width: 400px; height: 400px; margin-bottom: 30px;"">
      <div style=""display: flex; justify-content: center; gap: 40px;"">
      <div style=""
        text-align: center;
        font-size: 24px;
        opacity: 0.3;
        border: 2px solid #999;
        border-radius: 8px;
        padding: 20px 15px;
        width: 60px;
        box-shadow: none;
      "">
        F<br>
      </div>
      <div style=""
        text-align: center;
        font-size: 24px;
        opacity: 1;
        border: 2px solid #000;
        border-radius: 8px;
        padding: 20px 15px;
        width: 60px;
        box-shadow: 0 0 10px #333;
      "">
        G<br>
      </div>
      <div style=""
        text-align: center;
        font-size: 24px;
        opacity: 0.3;
        border: 2px solid #999;
        border-radius: 8px;
        padding: 20px 15px;
        width: 60px;
        box-shadow: none;
      "">
        H<br>
      </div>
      <div style=""
        text-align: center;
        font-size: 24px;
        opacity: 0.3;
        border: 2px solid #999;
        border-radius: 8px;
        padding: 20px 15px;
        width: 60px;
        box-shadow: none;
      "">
        J<br>
      </div></div></div>","g","1","4","fc","8","A2","{""A2"":""g"",""A3"":""h"",""A1"":""j"",""A4"":""f""}","{""A1"":0.8,""A2"":0.4,""A3"":0.5,""A4"":0.1}","Condition 1","0","","","",""
"","","","","","html-keyboard-response","38","2.1.0","127975","null","
    <div style=""text-align: center;"">
      <img src=""static/images/feedback_0.jpg"" style=""width: 400px; height: 400px; margin-bottom: 30px;"">
      <div style=""display: flex; justify-content: center; gap: 40px;"">
      <div style=""
        text-align: center;
        font-size: 24px;
        opacity: 0.3;
        border: 2px solid #999;
        border-radius: 8px;
        padding: 20px 15px;
        width: 60px;
        box-shadow: none;
      "">
        F<br>
      </div>
      <div style=""
        text-align: center;
        font-size: 24px;
        opacity: 1;
        border: 2px solid #000;
        border-radius: 8px;
        padding: 20px 15px;
        width: 60px;
        box-shadow: 0 0 10px #333;
      "">
        G<br>
      </div>
      <div style=""
        text-align: center;
        font-size: 24px;
        opacity: 0.3;
        border: 2px solid #999;
        border-radius: 8px;
        padding: 20px 15px;
        width: 60px;
        box-shadow: none;
      "">
        H<br>
      </div>
      <div style=""
        text-align: center;
        font-size: 24px;
        opacity: 0.3;
        border: 2px solid #999;
        border-radius: 8px;
        padding: 20px 15px;
        width: 60px;
        box-shadow: none;
      "">
        J<br>
      </div></div></div>","null","","","","","","","","","","","","",""
"","","","","","html-keyboard-response","39","2.1.0","128478","null","
    <div style=""text-align: center;"">
      <img src=""static/images/fix_cross.jpg"" style=""width: 400px; height: 400px; margin-bottom: 30px;"">
      <div style=""display: flex; justify-content: center; gap: 40px;"">
      <div style=""
        text-align: center;
        font-size: 24px;
        opacity: 0.3;
        border: 2px solid #999;
        border-radius: 8px;
        padding: 20px 15px;
        width: 60px;
        box-shadow: none;
      "">
        F<br>
      </div>
      <div style=""
        text-align: center;
        font-size: 24px;
        opacity: 0.3;
        border: 2px solid #999;
        border-radius: 8px;
        padding: 20px 15px;
        width: 60px;
        box-shadow: none;
      "">
        G<br>
      </div>
      <div style=""
        text-align: center;
        font-size: 24px;
        opacity: 1;
        border: 2px solid #000;
        border-radius: 8px;
        padding: 20px 15px;
        width: 60px;
        box-shadow: 0 0 10px #333;
      "">
        H<br>
      </div>
      <div style=""
        text-align: center;
        font-size: 24px;
        opacity: 0.3;
        border: 2px solid #999;
        border-radius: 8px;
        padding: 20px 15px;
        width: 60px;
        box-shadow: none;
      "">
        J<br>
      </div></div></div>","null","","","","","","","","","","","","",""
"","","","","","html-keyboard-response","40","2.1.0","129292","812","
    <div style=""text-align: center;"">
      <img src=""static/images/8.jpg"" style=""width: 400px; height: 400px; margin-bottom: 30px;"">
      <div style=""display: flex; justify-content: center; gap: 40px;"">
      <div style=""
        text-align: center;
        font-size: 24px;
        opacity: 0.3;
        border: 2px solid #999;
        border-radius: 8px;
        padding: 20px 15px;
        width: 60px;
        box-shadow: none;
      "">
        F<br>
      </div>
      <div style=""
        text-align: center;
        font-size: 24px;
        opacity: 0.3;
        border: 2px solid #999;
        border-radius: 8px;
        padding: 20px 15px;
        width: 60px;
        box-shadow: none;
      "">
        G<br>
      </div>
      <div style=""
        text-align: center;
        font-size: 24px;
        opacity: 1;
        border: 2px solid #000;
        border-radius: 8px;
        padding: 20px 15px;
        width: 60px;
        box-shadow: 0 0 10px #333;
      "">
        H<br>
      </div>
      <div style=""
        text-align: center;
        font-size: 24px;
        opacity: 0.3;
        border: 2px solid #999;
        border-radius: 8px;
        padding: 20px 15px;
        width: 60px;
        box-shadow: none;
      "">
        J<br>
      </div></div></div>","h","1","0","fc","8","A3","{""A2"":""g"",""A3"":""h"",""A1"":""j"",""A4"":""f""}","{""A1"":0.8,""A2"":0.4,""A3"":0.5,""A4"":0.1}","Condition 1","1","","","",""
"","","","","","html-keyboard-response","41","2.1.0","130294","null","
    <div style=""text-align: center;"">
      <img src=""static/images/feedback_1.jpg"" style=""width: 400px; height: 400px; margin-bottom: 30px;"">
      <div style=""display: flex; justify-content: center; gap: 40px;"">
      <div style=""
        text-align: center;
        font-size: 24px;
        opacity: 0.3;
        border: 2px solid #999;
        border-radius: 8px;
        padding: 20px 15px;
        width: 60px;
        box-shadow: none;
      "">
        F<br>
      </div>
      <div style=""
        text-align: center;
        font-size: 24px;
        opacity: 0.3;
        border: 2px solid #999;
        border-radius: 8px;
        padding: 20px 15px;
        width: 60px;
        box-shadow: none;
      "">
        G<br>
      </div>
      <div style=""
        text-align: center;
        font-size: 24px;
        opacity: 1;
        border: 2px solid #000;
        border-radius: 8px;
        padding: 20px 15px;
        width: 60px;
        box-shadow: 0 0 10px #333;
      "">
        H<br>
      </div>
      <div style=""
        text-align: center;
        font-size: 24px;
        opacity: 0.3;
        border: 2px solid #999;
        border-radius: 8px;
        padding: 20px 15px;
        width: 60px;
        box-shadow: none;
      "">
        J<br>
      </div></div></div>","null","","","","","","","","","","","","",""
"","","","","","html-keyboard-response","42","2.1.0","130797","null","
    <div style=""text-align: center;"">
      <img src=""static/images/fix_cross.jpg"" style=""width: 400px; height: 400px; margin-bottom: 30px;"">
      <div style=""display: flex; justify-content: center; gap: 40px;"">
      <div style=""
        text-align: center;
        font-size: 24px;
        opacity: 0.3;
        border: 2px solid #999;
        border-radius: 8px;
        padding: 20px 15px;
        width: 60px;
        box-shadow: none;
      "">
        F<br>
      </div>
      <div style=""
        text-align: center;
        font-size: 24px;
        opacity: 0.3;
        border: 2px solid #999;
        border-radius: 8px;
        padding: 20px 15px;
        width: 60px;
        box-shadow: none;
      "">
        G<br>
      </div>
      <div style=""
        text-align: center;
        font-size: 24px;
        opacity: 1;
        border: 2px solid #000;
        border-radius: 8px;
        padding: 20px 15px;
        width: 60px;
        box-shadow: 0 0 10px #333;
      "">
        H<br>
      </div>
      <div style=""
        text-align: center;
        font-size: 24px;
        opacity: 0.3;
        border: 2px solid #999;
        border-radius: 8px;
        padding: 20px 15px;
        width: 60px;
        box-shadow: none;
      "">
        J<br>
      </div></div></div>","null","","","","","","","","","","","","",""
"","","","","","html-keyboard-response","43","2.1.0","131430","633","
    <div style=""text-align: center;"">
      <img src=""static/images/8.jpg"" style=""width: 400px; height: 400px; margin-bottom: 30px;"">
      <div style=""display: flex; justify-content: center; gap: 40px;"">
      <div style=""
        text-align: center;
        font-size: 24px;
        opacity: 0.3;
        border: 2px solid #999;
        border-radius: 8px;
        padding: 20px 15px;
        width: 60px;
        box-shadow: none;
      "">
        F<br>
      </div>
      <div style=""
        text-align: center;
        font-size: 24px;
        opacity: 0.3;
        border: 2px solid #999;
        border-radius: 8px;
        padding: 20px 15px;
        width: 60px;
        box-shadow: none;
      "">
        G<br>
      </div>
      <div style=""
        text-align: center;
        font-size: 24px;
        opacity: 1;
        border: 2px solid #000;
        border-radius: 8px;
        padding: 20px 15px;
        width: 60px;
        box-shadow: 0 0 10px #333;
      "">
        H<br>
      </div>
      <div style=""
        text-align: center;
        font-size: 24px;
        opacity: 0.3;
        border: 2px solid #999;
        border-radius: 8px;
        padding: 20px 15px;
        width: 60px;
        box-shadow: none;
      "">
        J<br>
      </div></div></div>","h","1","1","fc","8","A3","{""A2"":""g"",""A3"":""h"",""A1"":""j"",""A4"":""f""}","{""A1"":0.8,""A2"":0.4,""A3"":0.5,""A4"":0.1}","Condition 1","0","","","",""
"","","","","","html-keyboard-response","44","2.1.0","132432","null","
    <div style=""text-align: center;"">
      <img src=""static/images/feedback_0.jpg"" style=""width: 400px; height: 400px; margin-bottom: 30px;"">
      <div style=""display: flex; justify-content: center; gap: 40px;"">
      <div style=""
        text-align: center;
        font-size: 24px;
        opacity: 0.3;
        border: 2px solid #999;
        border-radius: 8px;
        padding: 20px 15px;
        width: 60px;
        box-shadow: none;
      "">
        F<br>
      </div>
      <div style=""
        text-align: center;
        font-size: 24px;
        opacity: 0.3;
        border: 2px solid #999;
        border-radius: 8px;
        padding: 20px 15px;
        width: 60px;
        box-shadow: none;
      "">
        G<br>
      </div>
      <div style=""
        text-align: center;
        font-size: 24px;
        opacity: 1;
        border: 2px solid #000;
        border-radius: 8px;
        padding: 20px 15px;
        width: 60px;
        box-shadow: 0 0 10px #333;
      "">
        H<br>
      </div>
      <div style=""
        text-align: center;
        font-size: 24px;
        opacity: 0.3;
        border: 2px solid #999;
        border-radius: 8px;
        padding: 20px 15px;
        width: 60px;
        box-shadow: none;
      "">
        J<br>
      </div></div></div>","null","","","","","","","","","","","","",""
"","","","","","html-keyboard-response","45","2.1.0","132934","null","
    <div style=""text-align: center;"">
      <img src=""static/images/fix_cross.jpg"" style=""width: 400px; height: 400px; margin-bottom: 30px;"">
      <div style=""display: flex; justify-content: center; gap: 40px;"">
      <div style=""
        text-align: center;
        font-size: 24px;
        opacity: 0.3;
        border: 2px solid #999;
        border-radius: 8px;
        padding: 20px 15px;
        width: 60px;
        box-shadow: none;
      "">
        F<br>
      </div>
      <div style=""
        text-align: center;
        font-size: 24px;
        opacity: 0.3;
        border: 2px solid #999;
        border-radius: 8px;
        padding: 20px 15px;
        width: 60px;
        box-shadow: none;
      "">
        G<br>
      </div>
      <div style=""
        text-align: center;
        font-size: 24px;
        opacity: 1;
        border: 2px solid #000;
        border-radius: 8px;
        padding: 20px 15px;
        width: 60px;
        box-shadow: 0 0 10px #333;
      "">
        H<br>
      </div>
      <div style=""
        text-align: center;
        font-size: 24px;
        opacity: 0.3;
        border: 2px solid #999;
        border-radius: 8px;
        padding: 20px 15px;
        width: 60px;
        box-shadow: none;
      "">
        J<br>
      </div></div></div>","null","","","","","","","","","","","","",""
"","","","","","html-keyboard-response","46","2.1.0","133846","911","
    <div style=""text-align: center;"">
      <img src=""static/images/8.jpg"" style=""width: 400px; height: 400px; margin-bottom: 30px;"">
      <div style=""display: flex; justify-content: center; gap: 40px;"">
      <div style=""
        text-align: center;
        font-size: 24px;
        opacity: 0.3;
        border: 2px solid #999;
        border-radius: 8px;
        padding: 20px 15px;
        width: 60px;
        box-shadow: none;
      "">
        F<br>
      </div>
      <div style=""
        text-align: center;
        font-size: 24px;
        opacity: 0.3;
        border: 2px solid #999;
        border-radius: 8px;
        padding: 20px 15px;
        width: 60px;
        box-shadow: none;
      "">
        G<br>
      </div>
      <div style=""
        text-align: center;
        font-size: 24px;
        opacity: 1;
        border: 2px solid #000;
        border-radius: 8px;
        padding: 20px 15px;
        width: 60px;
        box-shadow: 0 0 10px #333;
      "">
        H<br>
      </div>
      <div style=""
        text-align: center;
        font-size: 24px;
        opacity: 0.3;
        border: 2px solid #999;
        border-radius: 8px;
        padding: 20px 15px;
        width: 60px;
        box-shadow: none;
      "">
        J<br>
      </div></div></div>","h","1","2","fc","8","A3","{""A2"":""g"",""A3"":""h"",""A1"":""j"",""A4"":""f""}","{""A1"":0.8,""A2"":0.4,""A3"":0.5,""A4"":0.1}","Condition 1","0","","","",""
"","","","","","html-keyboard-response","47","2.1.0","134847","null","
    <div style=""text-align: center;"">
      <img src=""static/images/feedback_0.jpg"" style=""width: 400px; height: 400px; margin-bottom: 30px;"">
      <div style=""display: flex; justify-content: center; gap: 40px;"">
      <div style=""
        text-align: center;
        font-size: 24px;
        opacity: 0.3;
        border: 2px solid #999;
        border-radius: 8px;
        padding: 20px 15px;
        width: 60px;
        box-shadow: none;
      "">
        F<br>
      </div>
      <div style=""
        text-align: center;
        font-size: 24px;
        opacity: 0.3;
        border: 2px solid #999;
        border-radius: 8px;
        padding: 20px 15px;
        width: 60px;
        box-shadow: none;
      "">
        G<br>
      </div>
      <div style=""
        text-align: center;
        font-size: 24px;
        opacity: 1;
        border: 2px solid #000;
        border-radius: 8px;
        padding: 20px 15px;
        width: 60px;
        box-shadow: 0 0 10px #333;
      "">
        H<br>
      </div>
      <div style=""
        text-align: center;
        font-size: 24px;
        opacity: 0.3;
        border: 2px solid #999;
        border-radius: 8px;
        padding: 20px 15px;
        width: 60px;
        box-shadow: none;
      "">
        J<br>
      </div></div></div>","null","","","","","","","","","","","","",""
"","","","","","html-keyboard-response","48","2.1.0","135350","null","
    <div style=""text-align: center;"">
      <img src=""static/images/fix_cross.jpg"" style=""width: 400px; height: 400px; margin-bottom: 30px;"">
      <div style=""display: flex; justify-content: center; gap: 40px;"">
      <div style=""
        text-align: center;
        font-size: 24px;
        opacity: 0.3;
        border: 2px solid #999;
        border-radius: 8px;
        padding: 20px 15px;
        width: 60px;
        box-shadow: none;
      "">
        F<br>
      </div>
      <div style=""
        text-align: center;
        font-size: 24px;
        opacity: 0.3;
        border: 2px solid #999;
        border-radius: 8px;
        padding: 20px 15px;
        width: 60px;
        box-shadow: none;
      "">
        G<br>
      </div>
      <div style=""
        text-align: center;
        font-size: 24px;
        opacity: 1;
        border: 2px solid #000;
        border-radius: 8px;
        padding: 20px 15px;
        width: 60px;
        box-shadow: 0 0 10px #333;
      "">
        H<br>
      </div>
      <div style=""
        text-align: center;
        font-size: 24px;
        opacity: 0.3;
        border: 2px solid #999;
        border-radius: 8px;
        padding: 20px 15px;
        width: 60px;
        box-shadow: none;
      "">
        J<br>
      </div></div></div>","null","","","","","","","","","","","","",""
"","","","","","html-keyboard-response","49","2.1.0","135855","503","
    <div style=""text-align: center;"">
      <img src=""static/images/8.jpg"" style=""width: 400px; height: 400px; margin-bottom: 30px;"">
      <div style=""display: flex; justify-content: center; gap: 40px;"">
      <div style=""
        text-align: center;
        font-size: 24px;
        opacity: 0.3;
        border: 2px solid #999;
        border-radius: 8px;
        padding: 20px 15px;
        width: 60px;
        box-shadow: none;
      "">
        F<br>
      </div>
      <div style=""
        text-align: center;
        font-size: 24px;
        opacity: 0.3;
        border: 2px solid #999;
        border-radius: 8px;
        padding: 20px 15px;
        width: 60px;
        box-shadow: none;
      "">
        G<br>
      </div>
      <div style=""
        text-align: center;
        font-size: 24px;
        opacity: 1;
        border: 2px solid #000;
        border-radius: 8px;
        padding: 20px 15px;
        width: 60px;
        box-shadow: 0 0 10px #333;
      "">
        H<br>
      </div>
      <div style=""
        text-align: center;
        font-size: 24px;
        opacity: 0.3;
        border: 2px solid #999;
        border-radius: 8px;
        padding: 20px 15px;
        width: 60px;
        box-shadow: none;
      "">
        J<br>
      </div></div></div>","h","1","3","fc","8","A3","{""A2"":""g"",""A3"":""h"",""A1"":""j"",""A4"":""f""}","{""A1"":0.8,""A2"":0.4,""A3"":0.5,""A4"":0.1}","Condition 1","1","","","",""
"","","","","","html-keyboard-response","50","2.1.0","136857","null","
    <div style=""text-align: center;"">
      <img src=""static/images/feedback_1.jpg"" style=""width: 400px; height: 400px; margin-bottom: 30px;"">
      <div style=""display: flex; justify-content: center; gap: 40px;"">
      <div style=""
        text-align: center;
        font-size: 24px;
        opacity: 0.3;
        border: 2px solid #999;
        border-radius: 8px;
        padding: 20px 15px;
        width: 60px;
        box-shadow: none;
      "">
        F<br>
      </div>
      <div style=""
        text-align: center;
        font-size: 24px;
        opacity: 0.3;
        border: 2px solid #999;
        border-radius: 8px;
        padding: 20px 15px;
        width: 60px;
        box-shadow: none;
      "">
        G<br>
      </div>
      <div style=""
        text-align: center;
        font-size: 24px;
        opacity: 1;
        border: 2px solid #000;
        border-radius: 8px;
        padding: 20px 15px;
        width: 60px;
        box-shadow: 0 0 10px #333;
      "">
        H<br>
      </div>
      <div style=""
        text-align: center;
        font-size: 24px;
        opacity: 0.3;
        border: 2px solid #999;
        border-radius: 8px;
        padding: 20px 15px;
        width: 60px;
        box-shadow: none;
      "">
        J<br>
      </div></div></div>","null","","","","","","","","","","","","",""
"","","","","","html-keyboard-response","51","2.1.0","137360","null","
    <div style=""text-align: center;"">
      <img src=""static/images/fix_cross.jpg"" style=""width: 400px; height: 400px; margin-bottom: 30px;"">
      <div style=""display: flex; justify-content: center; gap: 40px;"">
      <div style=""
        text-align: center;
        font-size: 24px;
        opacity: 0.3;
        border: 2px solid #999;
        border-radius: 8px;
        padding: 20px 15px;
        width: 60px;
        box-shadow: none;
      "">
        F<br>
      </div>
      <div style=""
        text-align: center;
        font-size: 24px;
        opacity: 0.3;
        border: 2px solid #999;
        border-radius: 8px;
        padding: 20px 15px;
        width: 60px;
        box-shadow: none;
      "">
        G<br>
      </div>
      <div style=""
        text-align: center;
        font-size: 24px;
        opacity: 1;
        border: 2px solid #000;
        border-radius: 8px;
        padding: 20px 15px;
        width: 60px;
        box-shadow: 0 0 10px #333;
      "">
        H<br>
      </div>
      <div style=""
        text-align: center;
        font-size: 24px;
        opacity: 0.3;
        border: 2px solid #999;
        border-radius: 8px;
        padding: 20px 15px;
        width: 60px;
        box-shadow: none;
      "">
        J<br>
      </div></div></div>","null","","","","","","","","","","","","",""
"","","","","","html-keyboard-response","52","2.1.0","137701","339","
    <div style=""text-align: center;"">
      <img src=""static/images/8.jpg"" style=""width: 400px; height: 400px; margin-bottom: 30px;"">
      <div style=""display: flex; justify-content: center; gap: 40px;"">
      <div style=""
        text-align: center;
        font-size: 24px;
        opacity: 0.3;
        border: 2px solid #999;
        border-radius: 8px;
        padding: 20px 15px;
        width: 60px;
        box-shadow: none;
      "">
        F<br>
      </div>
      <div style=""
        text-align: center;
        font-size: 24px;
        opacity: 0.3;
        border: 2px solid #999;
        border-radius: 8px;
        padding: 20px 15px;
        width: 60px;
        box-shadow: none;
      "">
        G<br>
      </div>
      <div style=""
        text-align: center;
        font-size: 24px;
        opacity: 1;
        border: 2px solid #000;
        border-radius: 8px;
        padding: 20px 15px;
        width: 60px;
        box-shadow: 0 0 10px #333;
      "">
        H<br>
      </div>
      <div style=""
        text-align: center;
        font-size: 24px;
        opacity: 0.3;
        border: 2px solid #999;
        border-radius: 8px;
        padding: 20px 15px;
        width: 60px;
        box-shadow: none;
      "">
        J<br>
      </div></div></div>","h","1","4","fc","8","A3","{""A2"":""g"",""A3"":""h"",""A1"":""j"",""A4"":""f""}","{""A1"":0.8,""A2"":0.4,""A3"":0.5,""A4"":0.1}","Condition 1","1","","","",""
"","","","","","html-keyboard-response","53","2.1.0","138703","null","
    <div style=""text-align: center;"">
      <img src=""static/images/feedback_1.jpg"" style=""width: 400px; height: 400px; margin-bottom: 30px;"">
      <div style=""display: flex; justify-content: center; gap: 40px;"">
      <div style=""
        text-align: center;
        font-size: 24px;
        opacity: 0.3;
        border: 2px solid #999;
        border-radius: 8px;
        padding: 20px 15px;
        width: 60px;
        box-shadow: none;
      "">
        F<br>
      </div>
      <div style=""
        text-align: center;
        font-size: 24px;
        opacity: 0.3;
        border: 2px solid #999;
        border-radius: 8px;
        padding: 20px 15px;
        width: 60px;
        box-shadow: none;
      "">
        G<br>
      </div>
      <div style=""
        text-align: center;
        font-size: 24px;
        opacity: 1;
        border: 2px solid #000;
        border-radius: 8px;
        padding: 20px 15px;
        width: 60px;
        box-shadow: 0 0 10px #333;
      "">
        H<br>
      </div>
      <div style=""
        text-align: center;
        font-size: 24px;
        opacity: 0.3;
        border: 2px solid #999;
        border-radius: 8px;
        padding: 20px 15px;
        width: 60px;
        box-shadow: none;
      "">
        J<br>
      </div></div></div>","null","","","","","","","","","","","","",""
"","","","","","html-keyboard-response","54","2.1.0","139205","null","
    <div style=""text-align: center;"">
      <img src=""static/images/fix_cross.jpg"" style=""width: 400px; height: 400px; margin-bottom: 30px;"">
      <div style=""display: flex; justify-content: center; gap: 40px;"">
      <div style=""
        text-align: center;
        font-size: 24px;
        opacity: 1;
        border: 2px solid #000;
        border-radius: 8px;
        padding: 20px 15px;
        width: 60px;
        box-shadow: 0 0 10px #333;
      "">
        F<br>
      </div>
      <div style=""
        text-align: center;
        font-size: 24px;
        opacity: 0.3;
        border: 2px solid #999;
        border-radius: 8px;
        padding: 20px 15px;
        width: 60px;
        box-shadow: none;
      "">
        G<br>
      </div>
      <div style=""
        text-align: center;
        font-size: 24px;
        opacity: 0.3;
        border: 2px solid #999;
        border-radius: 8px;
        padding: 20px 15px;
        width: 60px;
        box-shadow: none;
      "">
        H<br>
      </div>
      <div style=""
        text-align: center;
        font-size: 24px;
        opacity: 0.3;
        border: 2px solid #999;
        border-radius: 8px;
        padding: 20px 15px;
        width: 60px;
        box-shadow: none;
      "">
        J<br>
      </div></div></div>","null","","","","","","","","","","","","",""
"","","","","","html-keyboard-response","55","2.1.0","140087","880","
    <div style=""text-align: center;"">
      <img src=""static/images/8.jpg"" style=""width: 400px; height: 400px; margin-bottom: 30px;"">
      <div style=""display: flex; justify-content: center; gap: 40px;"">
      <div style=""
        text-align: center;
        font-size: 24px;
        opacity: 1;
        border: 2px solid #000;
        border-radius: 8px;
        padding: 20px 15px;
        width: 60px;
        box-shadow: 0 0 10px #333;
      "">
        F<br>
      </div>
      <div style=""
        text-align: center;
        font-size: 24px;
        opacity: 0.3;
        border: 2px solid #999;
        border-radius: 8px;
        padding: 20px 15px;
        width: 60px;
        box-shadow: none;
      "">
        G<br>
      </div>
      <div style=""
        text-align: center;
        font-size: 24px;
        opacity: 0.3;
        border: 2px solid #999;
        border-radius: 8px;
        padding: 20px 15px;
        width: 60px;
        box-shadow: none;
      "">
        H<br>
      </div>
      <div style=""
        text-align: center;
        font-size: 24px;
        opacity: 0.3;
        border: 2px solid #999;
        border-radius: 8px;
        padding: 20px 15px;
        width: 60px;
        box-shadow: none;
      "">
        J<br>
      </div></div></div>","f","1","0","fc","8","A4","{""A2"":""g"",""A3"":""h"",""A1"":""j"",""A4"":""f""}","{""A1"":0.8,""A2"":0.4,""A3"":0.5,""A4"":0.1}","Condition 1","1","","","",""
"","","","","","html-keyboard-response","56","2.1.0","141089","null","
    <div style=""text-align: center;"">
      <img src=""static/images/feedback_1.jpg"" style=""width: 400px; height: 400px; margin-bottom: 30px;"">
      <div style=""display: flex; justify-content: center; gap: 40px;"">
      <div style=""
        text-align: center;
        font-size: 24px;
        opacity: 1;
        border: 2px solid #000;
        border-radius: 8px;
        padding: 20px 15px;
        width: 60px;
        box-shadow: 0 0 10px #333;
      "">
        F<br>
      </div>
      <div style=""
        text-align: center;
        font-size: 24px;
        opacity: 0.3;
        border: 2px solid #999;
        border-radius: 8px;
        padding: 20px 15px;
        width: 60px;
        box-shadow: none;
      "">
        G<br>
      </div>
      <div style=""
        text-align: center;
        font-size: 24px;
        opacity: 0.3;
        border: 2px solid #999;
        border-radius: 8px;
        padding: 20px 15px;
        width: 60px;
        box-shadow: none;
      "">
        H<br>
      </div>
      <div style=""
        text-align: center;
        font-size: 24px;
        opacity: 0.3;
        border: 2px solid #999;
        border-radius: 8px;
        padding: 20px 15px;
        width: 60px;
        box-shadow: none;
      "">
        J<br>
      </div></div></div>","null","","","","","","","","","","","","",""
"","","","","","html-keyboard-response","57","2.1.0","141593","null","
    <div style=""text-align: center;"">
      <img src=""static/images/fix_cross.jpg"" style=""width: 400px; height: 400px; margin-bottom: 30px;"">
      <div style=""display: flex; justify-content: center; gap: 40px;"">
      <div style=""
        text-align: center;
        font-size: 24px;
        opacity: 1;
        border: 2px solid #000;
        border-radius: 8px;
        padding: 20px 15px;
        width: 60px;
        box-shadow: 0 0 10px #333;
      "">
        F<br>
      </div>
      <div style=""
        text-align: center;
        font-size: 24px;
        opacity: 0.3;
        border: 2px solid #999;
        border-radius: 8px;
        padding: 20px 15px;
        width: 60px;
        box-shadow: none;
      "">
        G<br>
      </div>
      <div style=""
        text-align: center;
        font-size: 24px;
        opacity: 0.3;
        border: 2px solid #999;
        border-radius: 8px;
        padding: 20px 15px;
        width: 60px;
        box-shadow: none;
      "">
        H<br>
      </div>
      <div style=""
        text-align: center;
        font-size: 24px;
        opacity: 0.3;
        border: 2px solid #999;
        border-radius: 8px;
        padding: 20px 15px;
        width: 60px;
        box-shadow: none;
      "">
        J<br>
      </div></div></div>","null","","","","","","","","","","","","",""
"","","","","","html-keyboard-response","58","2.1.0","141985","391","
    <div style=""text-align: center;"">
      <img src=""static/images/8.jpg"" style=""width: 400px; height: 400px; margin-bottom: 30px;"">
      <div style=""display: flex; justify-content: center; gap: 40px;"">
      <div style=""
        text-align: center;
        font-size: 24px;
        opacity: 1;
        border: 2px solid #000;
        border-radius: 8px;
        padding: 20px 15px;
        width: 60px;
        box-shadow: 0 0 10px #333;
      "">
        F<br>
      </div>
      <div style=""
        text-align: center;
        font-size: 24px;
        opacity: 0.3;
        border: 2px solid #999;
        border-radius: 8px;
        padding: 20px 15px;
        width: 60px;
        box-shadow: none;
      "">
        G<br>
      </div>
      <div style=""
        text-align: center;
        font-size: 24px;
        opacity: 0.3;
        border: 2px solid #999;
        border-radius: 8px;
        padding: 20px 15px;
        width: 60px;
        box-shadow: none;
      "">
        H<br>
      </div>
      <div style=""
        text-align: center;
        font-size: 24px;
        opacity: 0.3;
        border: 2px solid #999;
        border-radius: 8px;
        padding: 20px 15px;
        width: 60px;
        box-shadow: none;
      "">
        J<br>
      </div></div></div>","f","1","1","fc","8","A4","{""A2"":""g"",""A3"":""h"",""A1"":""j"",""A4"":""f""}","{""A1"":0.8,""A2"":0.4,""A3"":0.5,""A4"":0.1}","Condition 1","0","","","",""
"","","","","","html-keyboard-response","59","2.1.0","142988","null","
    <div style=""text-align: center;"">
      <img src=""static/images/feedback_0.jpg"" style=""width: 400px; height: 400px; margin-bottom: 30px;"">
      <div style=""display: flex; justify-content: center; gap: 40px;"">
      <div style=""
        text-align: center;
        font-size: 24px;
        opacity: 1;
        border: 2px solid #000;
        border-radius: 8px;
        padding: 20px 15px;
        width: 60px;
        box-shadow: 0 0 10px #333;
      "">
        F<br>
      </div>
      <div style=""
        text-align: center;
        font-size: 24px;
        opacity: 0.3;
        border: 2px solid #999;
        border-radius: 8px;
        padding: 20px 15px;
        width: 60px;
        box-shadow: none;
      "">
        G<br>
      </div>
      <div style=""
        text-align: center;
        font-size: 24px;
        opacity: 0.3;
        border: 2px solid #999;
        border-radius: 8px;
        padding: 20px 15px;
        width: 60px;
        box-shadow: none;
      "">
        H<br>
      </div>
      <div style=""
        text-align: center;
        font-size: 24px;
        opacity: 0.3;
        border: 2px solid #999;
        border-radius: 8px;
        padding: 20px 15px;
        width: 60px;
        box-shadow: none;
      "">
        J<br>
      </div></div></div>","null","","","","","","","","","","","","",""
"","","","","","html-keyboard-response","60","2.1.0","143490","null","
    <div style=""text-align: center;"">
      <img src=""static/images/fix_cross.jpg"" style=""width: 400px; height: 400px; margin-bottom: 30px;"">
      <div style=""display: flex; justify-content: center; gap: 40px;"">
      <div style=""
        text-align: center;
        font-size: 24px;
        opacity: 1;
        border: 2px solid #000;
        border-radius: 8px;
        padding: 20px 15px;
        width: 60px;
        box-shadow: 0 0 10px #333;
      "">
        F<br>
      </div>
      <div style=""
        text-align: center;
        font-size: 24px;
        opacity: 0.3;
        border: 2px solid #999;
        border-radius: 8px;
        padding: 20px 15px;
        width: 60px;
        box-shadow: none;
      "">
        G<br>
      </div>
      <div style=""
        text-align: center;
        font-size: 24px;
        opacity: 0.3;
        border: 2px solid #999;
        border-radius: 8px;
        padding: 20px 15px;
        width: 60px;
        box-shadow: none;
      "">
        H<br>
      </div>
      <div style=""
        text-align: center;
        font-size: 24px;
        opacity: 0.3;
        border: 2px solid #999;
        border-radius: 8px;
        padding: 20px 15px;
        width: 60px;
        box-shadow: none;
      "">
        J<br>
      </div></div></div>","null","","","","","","","","","","","","",""
"","","","","","html-keyboard-response","61","2.1.0","144204","713","
    <div style=""text-align: center;"">
      <img src=""static/images/8.jpg"" style=""width: 400px; height: 400px; margin-bottom: 30px;"">
      <div style=""display: flex; justify-content: center; gap: 40px;"">
      <div style=""
        text-align: center;
        font-size: 24px;
        opacity: 1;
        border: 2px solid #000;
        border-radius: 8px;
        padding: 20px 15px;
        width: 60px;
        box-shadow: 0 0 10px #333;
      "">
        F<br>
      </div>
      <div style=""
        text-align: center;
        font-size: 24px;
        opacity: 0.3;
        border: 2px solid #999;
        border-radius: 8px;
        padding: 20px 15px;
        width: 60px;
        box-shadow: none;
      "">
        G<br>
      </div>
      <div style=""
        text-align: center;
        font-size: 24px;
        opacity: 0.3;
        border: 2px solid #999;
        border-radius: 8px;
        padding: 20px 15px;
        width: 60px;
        box-shadow: none;
      "">
        H<br>
      </div>
      <div style=""
        text-align: center;
        font-size: 24px;
        opacity: 0.3;
        border: 2px solid #999;
        border-radius: 8px;
        padding: 20px 15px;
        width: 60px;
        box-shadow: none;
      "">
        J<br>
      </div></div></div>","f","1","2","fc","8","A4","{""A2"":""g"",""A3"":""h"",""A1"":""j"",""A4"":""f""}","{""A1"":0.8,""A2"":0.4,""A3"":0.5,""A4"":0.1}","Condition 1","0","","","",""
"","","","","","html-keyboard-response","62","2.1.0","145206","null","
    <div style=""text-align: center;"">
      <img src=""static/images/feedback_0.jpg"" style=""width: 400px; height: 400px; margin-bottom: 30px;"">
      <div style=""display: flex; justify-content: center; gap: 40px;"">
      <div style=""
        text-align: center;
        font-size: 24px;
        opacity: 1;
        border: 2px solid #000;
        border-radius: 8px;
        padding: 20px 15px;
        width: 60px;
        box-shadow: 0 0 10px #333;
      "">
        F<br>
      </div>
      <div style=""
        text-align: center;
        font-size: 24px;
        opacity: 0.3;
        border: 2px solid #999;
        border-radius: 8px;
        padding: 20px 15px;
        width: 60px;
        box-shadow: none;
      "">
        G<br>
      </div>
      <div style=""
        text-align: center;
        font-size: 24px;
        opacity: 0.3;
        border: 2px solid #999;
        border-radius: 8px;
        padding: 20px 15px;
        width: 60px;
        box-shadow: none;
      "">
        H<br>
      </div>
      <div style=""
        text-align: center;
        font-size: 24px;
        opacity: 0.3;
        border: 2px solid #999;
        border-radius: 8px;
        padding: 20px 15px;
        width: 60px;
        box-shadow: none;
      "">
        J<br>
      </div></div></div>","null","","","","","","","","","","","","",""
"","","","","","html-keyboard-response","63","2.1.0","145709","null","
    <div style=""text-align: center;"">
      <img src=""static/images/fix_cross.jpg"" style=""width: 400px; height: 400px; margin-bottom: 30px;"">
      <div style=""display: flex; justify-content: center; gap: 40px;"">
      <div style=""
        text-align: center;
        font-size: 24px;
        opacity: 1;
        border: 2px solid #000;
        border-radius: 8px;
        padding: 20px 15px;
        width: 60px;
        box-shadow: 0 0 10px #333;
      "">
        F<br>
      </div>
      <div style=""
        text-align: center;
        font-size: 24px;
        opacity: 0.3;
        border: 2px solid #999;
        border-radius: 8px;
        padding: 20px 15px;
        width: 60px;
        box-shadow: none;
      "">
        G<br>
      </div>
      <div style=""
        text-align: center;
        font-size: 24px;
        opacity: 0.3;
        border: 2px solid #999;
        border-radius: 8px;
        padding: 20px 15px;
        width: 60px;
        box-shadow: none;
      "">
        H<br>
      </div>
      <div style=""
        text-align: center;
        font-size: 24px;
        opacity: 0.3;
        border: 2px solid #999;
        border-radius: 8px;
        padding: 20px 15px;
        width: 60px;
        box-shadow: none;
      "">
        J<br>
      </div></div></div>","null","","","","","","","","","","","","",""
"","","","","","html-keyboard-response","64","2.1.0","146347","637","
    <div style=""text-align: center;"">
      <img src=""static/images/8.jpg"" style=""width: 400px; height: 400px; margin-bottom: 30px;"">
      <div style=""display: flex; justify-content: center; gap: 40px;"">
      <div style=""
        text-align: center;
        font-size: 24px;
        opacity: 1;
        border: 2px solid #000;
        border-radius: 8px;
        padding: 20px 15px;
        width: 60px;
        box-shadow: 0 0 10px #333;
      "">
        F<br>
      </div>
      <div style=""
        text-align: center;
        font-size: 24px;
        opacity: 0.3;
        border: 2px solid #999;
        border-radius: 8px;
        padding: 20px 15px;
        width: 60px;
        box-shadow: none;
      "">
        G<br>
      </div>
      <div style=""
        text-align: center;
        font-size: 24px;
        opacity: 0.3;
        border: 2px solid #999;
        border-radius: 8px;
        padding: 20px 15px;
        width: 60px;
        box-shadow: none;
      "">
        H<br>
      </div>
      <div style=""
        text-align: center;
        font-size: 24px;
        opacity: 0.3;
        border: 2px solid #999;
        border-radius: 8px;
        padding: 20px 15px;
        width: 60px;
        box-shadow: none;
      "">
        J<br>
      </div></div></div>","f","1","3","fc","8","A4","{""A2"":""g"",""A3"":""h"",""A1"":""j"",""A4"":""f""}","{""A1"":0.8,""A2"":0.4,""A3"":0.5,""A4"":0.1}","Condition 1","0","","","",""
"","","","","","html-keyboard-response","65","2.1.0","147349","null","
    <div style=""text-align: center;"">
      <img src=""static/images/feedback_0.jpg"" style=""width: 400px; height: 400px; margin-bottom: 30px;"">
      <div style=""display: flex; justify-content: center; gap: 40px;"">
      <div style=""
        text-align: center;
        font-size: 24px;
        opacity: 1;
        border: 2px solid #000;
        border-radius: 8px;
        padding: 20px 15px;
        width: 60px;
        box-shadow: 0 0 10px #333;
      "">
        F<br>
      </div>
      <div style=""
        text-align: center;
        font-size: 24px;
        opacity: 0.3;
        border: 2px solid #999;
        border-radius: 8px;
        padding: 20px 15px;
        width: 60px;
        box-shadow: none;
      "">
        G<br>
      </div>
      <div style=""
        text-align: center;
        font-size: 24px;
        opacity: 0.3;
        border: 2px solid #999;
        border-radius: 8px;
        padding: 20px 15px;
        width: 60px;
        box-shadow: none;
      "">
        H<br>
      </div>
      <div style=""
        text-align: center;
        font-size: 24px;
        opacity: 0.3;
        border: 2px solid #999;
        border-radius: 8px;
        padding: 20px 15px;
        width: 60px;
        box-shadow: none;
      "">
        J<br>
      </div></div></div>","null","","","","","","","","","","","","",""
"","","","","","html-keyboard-response","66","2.1.0","147851","null","
    <div style=""text-align: center;"">
      <img src=""static/images/fix_cross.jpg"" style=""width: 400px; height: 400px; margin-bottom: 30px;"">
      <div style=""display: flex; justify-content: center; gap: 40px;"">
      <div style=""
        text-align: center;
        font-size: 24px;
        opacity: 1;
        border: 2px solid #000;
        border-radius: 8px;
        padding: 20px 15px;
        width: 60px;
        box-shadow: 0 0 10px #333;
      "">
        F<br>
      </div>
      <div style=""
        text-align: center;
        font-size: 24px;
        opacity: 0.3;
        border: 2px solid #999;
        border-radius: 8px;
        padding: 20px 15px;
        width: 60px;
        box-shadow: none;
      "">
        G<br>
      </div>
      <div style=""
        text-align: center;
        font-size: 24px;
        opacity: 0.3;
        border: 2px solid #999;
        border-radius: 8px;
        padding: 20px 15px;
        width: 60px;
        box-shadow: none;
      "">
        H<br>
      </div>
      <div style=""
        text-align: center;
        font-size: 24px;
        opacity: 0.3;
        border: 2px solid #999;
        border-radius: 8px;
        padding: 20px 15px;
        width: 60px;
        box-shadow: none;
      "">
        J<br>
      </div></div></div>","null","","","","","","","","","","","","",""
"","","","","","html-keyboard-response","67","2.1.0","148103","252","
    <div style=""text-align: center;"">
      <img src=""static/images/8.jpg"" style=""width: 400px; height: 400px; margin-bottom: 30px;"">
      <div style=""display: flex; justify-content: center; gap: 40px;"">
      <div style=""
        text-align: center;
        font-size: 24px;
        opacity: 1;
        border: 2px solid #000;
        border-radius: 8px;
        padding: 20px 15px;
        width: 60px;
        box-shadow: 0 0 10px #333;
      "">
        F<br>
      </div>
      <div style=""
        text-align: center;
        font-size: 24px;
        opacity: 0.3;
        border: 2px solid #999;
        border-radius: 8px;
        padding: 20px 15px;
        width: 60px;
        box-shadow: none;
      "">
        G<br>
      </div>
      <div style=""
        text-align: center;
        font-size: 24px;
        opacity: 0.3;
        border: 2px solid #999;
        border-radius: 8px;
        padding: 20px 15px;
        width: 60px;
        box-shadow: none;
      "">
        H<br>
      </div>
      <div style=""
        text-align: center;
        font-size: 24px;
        opacity: 0.3;
        border: 2px solid #999;
        border-radius: 8px;
        padding: 20px 15px;
        width: 60px;
        box-shadow: none;
      "">
        J<br>
      </div></div></div>","f","1","4","fc","8","A4","{""A2"":""g"",""A3"":""h"",""A1"":""j"",""A4"":""f""}","{""A1"":0.8,""A2"":0.4,""A3"":0.5,""A4"":0.1}","Condition 1","0","","","",""
"","","","","","html-keyboard-response","68","2.1.0","149106","null","
    <div style=""text-align: center;"">
      <img src=""static/images/feedback_0.jpg"" style=""width: 400px; height: 400px; margin-bottom: 30px;"">
      <div style=""display: flex; justify-content: center; gap: 40px;"">
      <div style=""
        text-align: center;
        font-size: 24px;
        opacity: 1;
        border: 2px solid #000;
        border-radius: 8px;
        padding: 20px 15px;
        width: 60px;
        box-shadow: 0 0 10px #333;
      "">
        F<br>
      </div>
      <div style=""
        text-align: center;
        font-size: 24px;
        opacity: 0.3;
        border: 2px solid #999;
        border-radius: 8px;
        padding: 20px 15px;
        width: 60px;
        box-shadow: none;
      "">
        G<br>
      </div>
      <div style=""
        text-align: center;
        font-size: 24px;
        opacity: 0.3;
        border: 2px solid #999;
        border-radius: 8px;
        padding: 20px 15px;
        width: 60px;
        box-shadow: none;
      "">
        H<br>
      </div>
      <div style=""
        text-align: center;
        font-size: 24px;
        opacity: 0.3;
        border: 2px solid #999;
        border-radius: 8px;
        padding: 20px 15px;
        width: 60px;
        box-shadow: none;
      "">
        J<br>
      </div></div></div>","null","","","","","","","","","","","","",""
"","","","","","html-keyboard-response","69","2.1.0","151507","2401","
    <div style=""text-align: center; font-size: 1.2em;"">
      <h3 style=""font-size: 2em; "">Image 1</h3>
      The following actions will be available:<br/><br/>
      <div style=""display: flex; justify-content: center; gap: 40px;"">
      <div style=""
        text-align: center;
        font-size: 24px;
        opacity: 1;
        border: 2px solid #000;
        border-radius: 8px;
        padding: 20px 15px;
        width: 60px;
        box-shadow: 0 0 10px #333;
      "">
        F<br>
      </div>
      <div style=""
        text-align: center;
        font-size: 24px;
        opacity: 0.3;
        border: 2px solid #999;
        border-radius: 8px;
        padding: 20px 15px;
        width: 60px;
        box-shadow: none;
      "">
        G<br>
      </div>
      <div style=""
        text-align: center;
        font-size: 24px;
        opacity: 1;
        border: 2px solid #000;
        border-radius: 8px;
        padding: 20px 15px;
        width: 60px;
        box-shadow: 0 0 10px #333;
      "">
        H<br>
      </div>
      <div style=""
        text-align: center;
        font-size: 24px;
        opacity: 0.3;
        border: 2px solid #999;
        border-radius: 8px;
        padding: 20px 15px;
        width: 60px;
        box-shadow: none;
      "">
        J<br>
      </div></div></div></p></div><p class=""continue"" style=""font-size: 1.2em; "">[Press SPACE to continue]</p>"," ","","","","","","","","","","","","",""
"","","","","","html-keyboard-response","70","2.1.0","152009","null","
    <div style=""text-align: center;"">
      <img src=""static/images/fix_cross.jpg"" style=""width: 400px; height: 400px; margin-bottom: 30px;"">
      <div style=""display: flex; justify-content: center; gap: 40px;"">
      <div style=""
        text-align: center;
        font-size: 24px;
        opacity: 1;
        border: 2px solid #000;
        border-radius: 8px;
        padding: 20px 15px;
        width: 60px;
        box-shadow: 0 0 10px #333;
      "">
        F<br>
      </div>
      <div style=""
        text-align: center;
        font-size: 24px;
        opacity: 0.3;
        border: 2px solid #999;
        border-radius: 8px;
        padding: 20px 15px;
        width: 60px;
        box-shadow: none;
      "">
        G<br>
      </div>
      <div style=""
        text-align: center;
        font-size: 24px;
        opacity: 1;
        border: 2px solid #000;
        border-radius: 8px;
        padding: 20px 15px;
        width: 60px;
        box-shadow: 0 0 10px #333;
      "">
        H<br>
      </div>
      <div style=""
        text-align: center;
        font-size: 24px;
        opacity: 0.3;
        border: 2px solid #999;
        border-radius: 8px;
        padding: 20px 15px;
        width: 60px;
        box-shadow: none;
      "">
        J<br>
      </div></div></div>","null","","","","","","","","","","","","",""
"","","","","","html-keyboard-response","71","2.1.0","152452","443","
    <div style=""text-align: center;"">
      <img src=""static/images/8.jpg"" style=""width: 400px; height: 400px; margin-bottom: 30px;"">
      <div style=""display: flex; justify-content: center; gap: 40px;"">
      <div style=""
        text-align: center;
        font-size: 24px;
        opacity: 1;
        border: 2px solid #000;
        border-radius: 8px;
        padding: 20px 15px;
        width: 60px;
        box-shadow: 0 0 10px #333;
      "">
        F<br>
      </div>
      <div style=""
        text-align: center;
        font-size: 24px;
        opacity: 0.3;
        border: 2px solid #999;
        border-radius: 8px;
        padding: 20px 15px;
        width: 60px;
        box-shadow: none;
      "">
        G<br>
      </div>
      <div style=""
        text-align: center;
        font-size: 24px;
        opacity: 1;
        border: 2px solid #000;
        border-radius: 8px;
        padding: 20px 15px;
        width: 60px;
        box-shadow: 0 0 10px #333;
      "">
        H<br>
      </div>
      <div style=""
        text-align: center;
        font-size: 24px;
        opacity: 0.3;
        border: 2px solid #999;
        border-radius: 8px;
        padding: 20px 15px;
        width: 60px;
        box-shadow: none;
      "">
        J<br>
      </div></div></div>","h","1","","training","8","A3","{""A2"":""g"",""A3"":""h"",""A1"":""j"",""A4"":""f""}","{""A1"":0.8,""A2"":0.4,""A3"":0.5,""A4"":0.1}","Condition 1","0","0","[""A3"",""A4""]","[""h"",""f""]","false"
"","","","","","html-keyboard-response","72","2.1.0","153455","null","
    <div style=""text-align: center;"">
      <img src=""static/images/feedback_0.jpg"" style=""width: 400px; height: 400px; margin-bottom: 30px;"">
      <div style=""display: flex; justify-content: center; gap: 40px;"">
      <div style=""
        text-align: center;
        font-size: 24px;
        opacity: 1;
        border: 2px solid #000;
        border-radius: 8px;
        padding: 20px 15px;
        width: 60px;
        box-shadow: 0 0 10px #333;
      "">
        F<br>
      </div>
