"success","timeout","failed_images","failed_audio","failed_video","trial_type","trial_index","plugin_version","time_elapsed","rt","stimulus","response","block","n_force_rep","phase","image","action","key_action_mapping","reward_probs","condition","reward","trial","subset","available_keys"
"true","false","[]","[]","[]","preload","0","2.1.0","3","","","","","","","","","","","","","","",""
"true","","","","","fullscreen","1","2.1.0","1650","1544","","","","","","","","","","","","","",""
"","","","","","html-keyboard-response","2","2.1.0","79628","77977","<p style=""text-align: center; line-height: 1.6em""><h3>Instruction 1/5</h3>In this experiment, you will see a series of images on the screen.<br/>You can respond to each image by pressing one of the following buttons on the keyboard:<br/><br/><div style=""display: flex; justify-content: center; gap: 40px;"">
      <div style=""
        text-align: center;
        font-size: 24px;
        opacity: 1;
        border: 2px solid #000;
        border-radius: 8px;
        padding: 20px 15px;
        width: 60px;
        box-shadow: 0 0 10px #333;
      "">
        F<br>
      </div>
      <div style=""
        text-align: center;
        font-size: 24px;
        opacity: 1;
        border: 2px solid #000;
        border-radius: 8px;
        padding: 20px 15px;
        width: 60px;
        box-shadow: 0 0 10px #333;
      "">
        G<br>
      </div>
      <div style=""
        text-align: center;
        font-size: 24px;
        opacity: 1;
        border: 2px solid #000;
        border-radius: 8px;
        padding: 20px 15px;
        width: 60px;
        box-shadow: 0 0 10px #333;
      "">
        H<br>
      </div>
      <div style=""
        text-align: center;
        font-size: 24px;
        opacity: 1;
        border: 2px solid #000;
        border-radius: 8px;
        padding: 20px 15px;
        width: 60px;
        box-shadow: 0 0 10px #333;
      "">
        J<br>
      </div></div></div></p></div><p class=""continue"">[Press SPACE to continue]</p>"," ","","","","","","","","","","","",""
"","","","","","html-keyboard-response","3","2.1.0","86284","6652","<p style=""text-align: center; line-height: 1.6em""><h3>Instruction 2/5</h3>Pressing a button in response to an image can give you <span style=""color:red;"">0</span> or <span style=""color:green;"">+1</span> points<br/>The probability of receiving <span style=""color:red;"">0</span> or <span style=""color:green;"">+1</span> points differs for each button and each image.<br/>Your goal is to collect as many points as possible.<br/></p></div><p class=""continue"">[Press SPACE to continue]</p>"," ","","","","","","","","","","","",""
"","","","","","html-keyboard-response","4","2.1.0","95533","9248","<p style=""text-align: center; line-height: 1.6em""><h3>Instruction 3/5</h3>Each trial will first show a fixation cross. Please focus on this.<br/>When the image is shown, you have two seconds to respond.<br/></p></div><p class=""continue"">[Press SPACE to continue]</p>"," ","","","","","","","","","","","",""
"","","","","","html-keyboard-response","5","2.1.0","103080","7545","<p style=""text-align: center; line-height: 1.6em""><h3>Instruction 4/5</h3>Not all four actions might be available to you at a given time.<br/>This will be indicated to you.</p></div><p class=""continue"">[Press SPACE to continue]</p>"," ","","","","","","","","","","","",""
"","","","","","html-keyboard-response","6","2.1.0","123115","20033","<p style=""text-align: center; line-height: 1.6em""><h3>Instruction 5/5</h3>There will be 12 images, each of which will be presented repeatedly.<br/>To respond, please use your dominant with one finger on each button at all times.<br/>You will now start the main experiment.<br/></p></div><p class=""continue"">[Press SPACE to continue]</p>"," ","","","","","","","","","","","",""
"","","","","","html-keyboard-response","7","2.1.0","131803","8685","<h3>Image 1</h3>For the next trials, only single actions will be available.</p></div><p class=""continue"">[Press SPACE to continue]</p>"," ","","","","","","","","","","","",""
"","","","","","html-keyboard-response","8","2.1.0","132307","null","
    <div style=""text-align: center;"">
      <img src=""static/images/fix_cross.jpg"" style=""width: 400px; height: 400px; margin-bottom: 30px;"">
      <div style=""display: flex; justify-content: center; gap: 40px;"">
      <div style=""
        text-align: center;
        font-size: 24px;
        opacity: 0.3;
        border: 2px solid #999;
        border-radius: 8px;
        padding: 20px 15px;
        width: 60px;
        box-shadow: none;
      "">
        F<br>
      </div>
      <div style=""
        text-align: center;
        font-size: 24px;
        opacity: 0.3;
        border: 2px solid #999;
        border-radius: 8px;
        padding: 20px 15px;
        width: 60px;
        box-shadow: none;
      "">
        G<br>
      </div>
      <div style=""
        text-align: center;
        font-size: 24px;
        opacity: 1;
        border: 2px solid #000;
        border-radius: 8px;
        padding: 20px 15px;
        width: 60px;
        box-shadow: 0 0 10px #333;
      "">
        H<br>
      </div>
      <div style=""
        text-align: center;
        font-size: 24px;
        opacity: 0.3;
        border: 2px solid #999;
        border-radius: 8px;
        padding: 20px 15px;
        width: 60px;
        box-shadow: none;
      "">
        J<br>
      </div></div></div>","null","","","","","","","","","","","",""
"","","","","","html-keyboard-response","9","2.1.0","133370","1061","
    <div style=""text-align: center;"">
      <img src=""static/images/10.jpg"" style=""width: 400px; height: 400px; margin-bottom: 30px;"">
      <div style=""display: flex; justify-content: center; gap: 40px;"">
      <div style=""
        text-align: center;
        font-size: 24px;
        opacity: 0.3;
        border: 2px solid #999;
        border-radius: 8px;
        padding: 20px 15px;
        width: 60px;
        box-shadow: none;
      "">
        F<br>
      </div>
      <div style=""
        text-align: center;
        font-size: 24px;
        opacity: 0.3;
        border: 2px solid #999;
        border-radius: 8px;
        padding: 20px 15px;
        width: 60px;
        box-shadow: none;
      "">
        G<br>
      </div>
      <div style=""
        text-align: center;
        font-size: 24px;
        opacity: 1;
        border: 2px solid #000;
        border-radius: 8px;
        padding: 20px 15px;
        width: 60px;
        box-shadow: 0 0 10px #333;
      "">
        H<br>
      </div>
      <div style=""
        text-align: center;
        font-size: 24px;
        opacity: 0.3;
        border: 2px solid #999;
        border-radius: 8px;
        padding: 20px 15px;
        width: 60px;
        box-shadow: none;
      "">
        J<br>
      </div></div></div>","h","3","0","fc","10","A4","{""A3"":""g"",""A4"":""h"",""A2"":""j"",""A1"":""f""}","{""A1"":0.8,""A2"":0.4,""A3"":0.5,""A4"":0.1}","Condition 1","0","","",""
"","","","","","html-keyboard-response","10","2.1.0","134374","null","
    <div style=""text-align: center;"">
      <img src=""static/images/feedback_0.jpg"" style=""width: 400px; height: 400px; margin-bottom: 30px;"">
      <div style=""display: flex; justify-content: center; gap: 40px;"">
      <div style=""
        text-align: center;
        font-size: 24px;
        opacity: 0.3;
        border: 2px solid #999;
        border-radius: 8px;
        padding: 20px 15px;
        width: 60px;
        box-shadow: none;
      "">
        F<br>
      </div>
      <div style=""
        text-align: center;
        font-size: 24px;
        opacity: 0.3;
        border: 2px solid #999;
        border-radius: 8px;
        padding: 20px 15px;
        width: 60px;
        box-shadow: none;
      "">
        G<br>
      </div>
      <div style=""
        text-align: center;
        font-size: 24px;
        opacity: 1;
        border: 2px solid #000;
        border-radius: 8px;
        padding: 20px 15px;
        width: 60px;
        box-shadow: 0 0 10px #333;
      "">
        H<br>
      </div>
      <div style=""
        text-align: center;
        font-size: 24px;
        opacity: 0.3;
        border: 2px solid #999;
        border-radius: 8px;
        padding: 20px 15px;
        width: 60px;
        box-shadow: none;
      "">
        J<br>
      </div></div></div>","null","","","","","","","","","","","",""
"","","","","","html-keyboard-response","11","2.1.0","134878","null","
    <div style=""text-align: center;"">
      <img src=""static/images/fix_cross.jpg"" style=""width: 400px; height: 400px; margin-bottom: 30px;"">
      <div style=""display: flex; justify-content: center; gap: 40px;"">
      <div style=""
        text-align: center;
        font-size: 24px;
        opacity: 0.3;
        border: 2px solid #999;
        border-radius: 8px;
        padding: 20px 15px;
        width: 60px;
        box-shadow: none;
      "">
        F<br>
      </div>
      <div style=""
        text-align: center;
        font-size: 24px;
        opacity: 0.3;
        border: 2px solid #999;
        border-radius: 8px;
        padding: 20px 15px;
        width: 60px;
        box-shadow: none;
      "">
        G<br>
      </div>
      <div style=""
        text-align: center;
        font-size: 24px;
        opacity: 1;
        border: 2px solid #000;
        border-radius: 8px;
        padding: 20px 15px;
        width: 60px;
        box-shadow: 0 0 10px #333;
      "">
        H<br>
      </div>
      <div style=""
        text-align: center;
        font-size: 24px;
        opacity: 0.3;
        border: 2px solid #999;
        border-radius: 8px;
        padding: 20px 15px;
        width: 60px;
        box-shadow: none;
      "">
        J<br>
      </div></div></div>","null","","","","","","","","","","","",""
"","","","","","html-keyboard-response","12","2.1.0","135329","449","
    <div style=""text-align: center;"">
      <img src=""static/images/10.jpg"" style=""width: 400px; height: 400px; margin-bottom: 30px;"">
      <div style=""display: flex; justify-content: center; gap: 40px;"">
      <div style=""
        text-align: center;
        font-size: 24px;
        opacity: 0.3;
        border: 2px solid #999;
        border-radius: 8px;
        padding: 20px 15px;
        width: 60px;
        box-shadow: none;
      "">
        F<br>
      </div>
      <div style=""
        text-align: center;
        font-size: 24px;
        opacity: 0.3;
        border: 2px solid #999;
        border-radius: 8px;
        padding: 20px 15px;
        width: 60px;
        box-shadow: none;
      "">
        G<br>
      </div>
      <div style=""
        text-align: center;
        font-size: 24px;
        opacity: 1;
        border: 2px solid #000;
        border-radius: 8px;
        padding: 20px 15px;
        width: 60px;
        box-shadow: 0 0 10px #333;
      "">
        H<br>
      </div>
      <div style=""
        text-align: center;
        font-size: 24px;
        opacity: 0.3;
        border: 2px solid #999;
        border-radius: 8px;
        padding: 20px 15px;
        width: 60px;
        box-shadow: none;
      "">
        J<br>
      </div></div></div>","h","3","1","fc","10","A4","{""A3"":""g"",""A4"":""h"",""A2"":""j"",""A1"":""f""}","{""A1"":0.8,""A2"":0.4,""A3"":0.5,""A4"":0.1}","Condition 1","1","","",""
"","","","","","html-keyboard-response","13","2.1.0","136332","null","
    <div style=""text-align: center;"">
      <img src=""static/images/feedback_1.jpg"" style=""width: 400px; height: 400px; margin-bottom: 30px;"">
      <div style=""display: flex; justify-content: center; gap: 40px;"">
      <div style=""
        text-align: center;
        font-size: 24px;
        opacity: 0.3;
        border: 2px solid #999;
        border-radius: 8px;
        padding: 20px 15px;
        width: 60px;
        box-shadow: none;
      "">
        F<br>
      </div>
      <div style=""
        text-align: center;
        font-size: 24px;
        opacity: 0.3;
        border: 2px solid #999;
        border-radius: 8px;
        padding: 20px 15px;
        width: 60px;
        box-shadow: none;
      "">
        G<br>
      </div>
      <div style=""
        text-align: center;
        font-size: 24px;
        opacity: 1;
        border: 2px solid #000;
        border-radius: 8px;
        padding: 20px 15px;
        width: 60px;
        box-shadow: 0 0 10px #333;
      "">
        H<br>
      </div>
      <div style=""
        text-align: center;
        font-size: 24px;
        opacity: 0.3;
        border: 2px solid #999;
        border-radius: 8px;
        padding: 20px 15px;
        width: 60px;
        box-shadow: none;
      "">
        J<br>
      </div></div></div>","null","","","","","","","","","","","",""
"","","","","","html-keyboard-response","14","2.1.0","136836","null","
    <div style=""text-align: center;"">
      <img src=""static/images/fix_cross.jpg"" style=""width: 400px; height: 400px; margin-bottom: 30px;"">
      <div style=""display: flex; justify-content: center; gap: 40px;"">
      <div style=""
        text-align: center;
        font-size: 24px;
        opacity: 0.3;
        border: 2px solid #999;
        border-radius: 8px;
        padding: 20px 15px;
        width: 60px;
        box-shadow: none;
      "">
        F<br>
      </div>
      <div style=""
        text-align: center;
        font-size: 24px;
        opacity: 0.3;
        border: 2px solid #999;
        border-radius: 8px;
        padding: 20px 15px;
        width: 60px;
        box-shadow: none;
      "">
        G<br>
      </div>
      <div style=""
        text-align: center;
        font-size: 24px;
        opacity: 1;
        border: 2px solid #000;
        border-radius: 8px;
        padding: 20px 15px;
        width: 60px;
        box-shadow: 0 0 10px #333;
      "">
        H<br>
      </div>
      <div style=""
        text-align: center;
        font-size: 24px;
        opacity: 0.3;
        border: 2px solid #999;
        border-radius: 8px;
        padding: 20px 15px;
        width: 60px;
        box-shadow: none;
      "">
        J<br>
      </div></div></div>","null","","","","","","","","","","","",""
"","","","","","html-keyboard-response","15","2.1.0","137463","625","
    <div style=""text-align: center;"">
      <img src=""static/images/10.jpg"" style=""width: 400px; height: 400px; margin-bottom: 30px;"">
      <div style=""display: flex; justify-content: center; gap: 40px;"">
      <div style=""
        text-align: center;
        font-size: 24px;
        opacity: 0.3;
        border: 2px solid #999;
        border-radius: 8px;
        padding: 20px 15px;
        width: 60px;
        box-shadow: none;
      "">
        F<br>
      </div>
      <div style=""
        text-align: center;
        font-size: 24px;
        opacity: 0.3;
        border: 2px solid #999;
        border-radius: 8px;
        padding: 20px 15px;
        width: 60px;
        box-shadow: none;
      "">
        G<br>
      </div>
      <div style=""
        text-align: center;
        font-size: 24px;
        opacity: 1;
        border: 2px solid #000;
        border-radius: 8px;
        padding: 20px 15px;
        width: 60px;
        box-shadow: 0 0 10px #333;
      "">
        H<br>
      </div>
      <div style=""
        text-align: center;
        font-size: 24px;
        opacity: 0.3;
        border: 2px solid #999;
        border-radius: 8px;
        padding: 20px 15px;
        width: 60px;
        box-shadow: none;
      "">
        J<br>
      </div></div></div>","h","3","2","fc","10","A4","{""A3"":""g"",""A4"":""h"",""A2"":""j"",""A1"":""f""}","{""A1"":0.8,""A2"":0.4,""A3"":0.5,""A4"":0.1}","Condition 1","0","","",""
"","","","","","html-keyboard-response","16","2.1.0","138466","null","
    <div style=""text-align: center;"">
      <img src=""static/images/feedback_0.jpg"" style=""width: 400px; height: 400px; margin-bottom: 30px;"">
      <div style=""display: flex; justify-content: center; gap: 40px;"">
      <div style=""
        text-align: center;
        font-size: 24px;
        opacity: 0.3;
        border: 2px solid #999;
        border-radius: 8px;
        padding: 20px 15px;
        width: 60px;
        box-shadow: none;
      "">
        F<br>
      </div>
      <div style=""
        text-align: center;
        font-size: 24px;
        opacity: 0.3;
        border: 2px solid #999;
        border-radius: 8px;
        padding: 20px 15px;
        width: 60px;
        box-shadow: none;
      "">
        G<br>
      </div>
      <div style=""
        text-align: center;
        font-size: 24px;
        opacity: 1;
        border: 2px solid #000;
        border-radius: 8px;
        padding: 20px 15px;
        width: 60px;
        box-shadow: 0 0 10px #333;
      "">
        H<br>
      </div>
      <div style=""
        text-align: center;
        font-size: 24px;
        opacity: 0.3;
        border: 2px solid #999;
        border-radius: 8px;
        padding: 20px 15px;
        width: 60px;
        box-shadow: none;
      "">
        J<br>
      </div></div></div>","null","","","","","","","","","","","",""
"","","","","","html-keyboard-response","17","2.1.0","138970","null","
    <div style=""text-align: center;"">
      <img src=""static/images/fix_cross.jpg"" style=""width: 400px; height: 400px; margin-bottom: 30px;"">
      <div style=""display: flex; justify-content: center; gap: 40px;"">
      <div style=""
        text-align: center;
        font-size: 24px;
        opacity: 0.3;
        border: 2px solid #999;
        border-radius: 8px;
        padding: 20px 15px;
        width: 60px;
        box-shadow: none;
      "">
        F<br>
      </div>
      <div style=""
        text-align: center;
        font-size: 24px;
        opacity: 0.3;
        border: 2px solid #999;
        border-radius: 8px;
        padding: 20px 15px;
        width: 60px;
        box-shadow: none;
      "">
        G<br>
      </div>
      <div style=""
        text-align: center;
        font-size: 24px;
        opacity: 1;
        border: 2px solid #000;
        border-radius: 8px;
        padding: 20px 15px;
        width: 60px;
        box-shadow: 0 0 10px #333;
      "">
        H<br>
      </div>
      <div style=""
        text-align: center;
        font-size: 24px;
        opacity: 0.3;
        border: 2px solid #999;
        border-radius: 8px;
        padding: 20px 15px;
        width: 60px;
        box-shadow: none;
      "">
        J<br>
      </div></div></div>","null","","","","","","","","","","","",""
"","","","","","html-keyboard-response","18","2.1.0","139649","677","
    <div style=""text-align: center;"">
      <img src=""static/images/10.jpg"" style=""width: 400px; height: 400px; margin-bottom: 30px;"">
      <div style=""display: flex; justify-content: center; gap: 40px;"">
      <div style=""
        text-align: center;
        font-size: 24px;
        opacity: 0.3;
        border: 2px solid #999;
        border-radius: 8px;
        padding: 20px 15px;
        width: 60px;
        box-shadow: none;
      "">
        F<br>
      </div>
      <div style=""
        text-align: center;
        font-size: 24px;
        opacity: 0.3;
        border: 2px solid #999;
        border-radius: 8px;
        padding: 20px 15px;
        width: 60px;
        box-shadow: none;
      "">
        G<br>
      </div>
      <div style=""
        text-align: center;
        font-size: 24px;
        opacity: 1;
        border: 2px solid #000;
        border-radius: 8px;
        padding: 20px 15px;
        width: 60px;
        box-shadow: 0 0 10px #333;
      "">
        H<br>
      </div>
      <div style=""
        text-align: center;
        font-size: 24px;
        opacity: 0.3;
        border: 2px solid #999;
        border-radius: 8px;
        padding: 20px 15px;
        width: 60px;
        box-shadow: none;
      "">
        J<br>
      </div></div></div>","h","3","3","fc","10","A4","{""A3"":""g"",""A4"":""h"",""A2"":""j"",""A1"":""f""}","{""A1"":0.8,""A2"":0.4,""A3"":0.5,""A4"":0.1}","Condition 1","0","","",""
"","","","","","html-keyboard-response","19","2.1.0","140653","null","
    <div style=""text-align: center;"">
      <img src=""static/images/feedback_0.jpg"" style=""width: 400px; height: 400px; margin-bottom: 30px;"">
      <div style=""display: flex; justify-content: center; gap: 40px;"">
      <div style=""
        text-align: center;
        font-size: 24px;
        opacity: 0.3;
        border: 2px solid #999;
        border-radius: 8px;
        padding: 20px 15px;
        width: 60px;
        box-shadow: none;
      "">
        F<br>
      </div>
      <div style=""
        text-align: center;
        font-size: 24px;
        opacity: 0.3;
        border: 2px solid #999;
        border-radius: 8px;
        padding: 20px 15px;
        width: 60px;
        box-shadow: none;
      "">
        G<br>
      </div>
      <div style=""
        text-align: center;
        font-size: 24px;
        opacity: 1;
        border: 2px solid #000;
        border-radius: 8px;
        padding: 20px 15px;
        width: 60px;
        box-shadow: 0 0 10px #333;
      "">
        H<br>
      </div>
      <div style=""
        text-align: center;
        font-size: 24px;
        opacity: 0.3;
        border: 2px solid #999;
        border-radius: 8px;
        padding: 20px 15px;
        width: 60px;
        box-shadow: none;
      "">
        J<br>
      </div></div></div>","null","","","","","","","","","","","",""
"","","","","","html-keyboard-response","20","2.1.0","141156","null","
    <div style=""text-align: center;"">
      <img src=""static/images/fix_cross.jpg"" style=""width: 400px; height: 400px; margin-bottom: 30px;"">
      <div style=""display: flex; justify-content: center; gap: 40px;"">
      <div style=""
        text-align: center;
        font-size: 24px;
        opacity: 0.3;
        border: 2px solid #999;
        border-radius: 8px;
        padding: 20px 15px;
        width: 60px;
        box-shadow: none;
      "">
        F<br>
      </div>
      <div style=""
        text-align: center;
        font-size: 24px;
        opacity: 0.3;
        border: 2px solid #999;
        border-radius: 8px;
        padding: 20px 15px;
        width: 60px;
        box-shadow: none;
      "">
        G<br>
      </div>
      <div style=""
        text-align: center;
        font-size: 24px;
        opacity: 1;
        border: 2px solid #000;
        border-radius: 8px;
        padding: 20px 15px;
        width: 60px;
        box-shadow: 0 0 10px #333;
      "">
        H<br>
      </div>
      <div style=""
        text-align: center;
        font-size: 24px;
        opacity: 0.3;
        border: 2px solid #999;
        border-radius: 8px;
        padding: 20px 15px;
        width: 60px;
        box-shadow: none;
      "">
        J<br>
      </div></div></div>","null","","","","","","","","","","","",""
"","","","","","html-keyboard-response","21","2.1.0","141702","544","
    <div style=""text-align: center;"">
      <img src=""static/images/10.jpg"" style=""width: 400px; height: 400px; margin-bottom: 30px;"">
      <div style=""display: flex; justify-content: center; gap: 40px;"">
      <div style=""
        text-align: center;
        font-size: 24px;
        opacity: 0.3;
        border: 2px solid #999;
        border-radius: 8px;
        padding: 20px 15px;
        width: 60px;
        box-shadow: none;
      "">
        F<br>
      </div>
      <div style=""
        text-align: center;
        font-size: 24px;
        opacity: 0.3;
        border: 2px solid #999;
        border-radius: 8px;
        padding: 20px 15px;
        width: 60px;
        box-shadow: none;
      "">
        G<br>
      </div>
      <div style=""
        text-align: center;
        font-size: 24px;
        opacity: 1;
        border: 2px solid #000;
        border-radius: 8px;
        padding: 20px 15px;
        width: 60px;
        box-shadow: 0 0 10px #333;
      "">
        H<br>
      </div>
      <div style=""
        text-align: center;
        font-size: 24px;
        opacity: 0.3;
        border: 2px solid #999;
        border-radius: 8px;
        padding: 20px 15px;
        width: 60px;
        box-shadow: none;
      "">
        J<br>
      </div></div></div>","h","3","4","fc","10","A4","{""A3"":""g"",""A4"":""h"",""A2"":""j"",""A1"":""f""}","{""A1"":0.8,""A2"":0.4,""A3"":0.5,""A4"":0.1}","Condition 1","0","","",""
"","","","","","html-keyboard-response","22","2.1.0","142706","null","
    <div style=""text-align: center;"">
      <img src=""static/images/feedback_0.jpg"" style=""width: 400px; height: 400px; margin-bottom: 30px;"">
      <div style=""display: flex; justify-content: center; gap: 40px;"">
      <div style=""
        text-align: center;
        font-size: 24px;
        opacity: 0.3;
        border: 2px solid #999;
        border-radius: 8px;
        padding: 20px 15px;
        width: 60px;
        box-shadow: none;
      "">
        F<br>
      </div>
      <div style=""
        text-align: center;
        font-size: 24px;
        opacity: 0.3;
        border: 2px solid #999;
        border-radius: 8px;
        padding: 20px 15px;
        width: 60px;
        box-shadow: none;
      "">
        G<br>
      </div>
      <div style=""
        text-align: center;
        font-size: 24px;
        opacity: 1;
        border: 2px solid #000;
        border-radius: 8px;
        padding: 20px 15px;
        width: 60px;
        box-shadow: 0 0 10px #333;
      "">
        H<br>
      </div>
      <div style=""
        text-align: center;
        font-size: 24px;
        opacity: 0.3;
        border: 2px solid #999;
        border-radius: 8px;
        padding: 20px 15px;
        width: 60px;
        box-shadow: none;
      "">
        J<br>
      </div></div></div>","null","","","","","","","","","","","",""
"","","","","","html-keyboard-response","23","2.1.0","143210","null","
    <div style=""text-align: center;"">
      <img src=""static/images/fix_cross.jpg"" style=""width: 400px; height: 400px; margin-bottom: 30px;"">
      <div style=""display: flex; justify-content: center; gap: 40px;"">
      <div style=""
        text-align: center;
        font-size: 24px;
        opacity: 0.3;
        border: 2px solid #999;
        border-radius: 8px;
        padding: 20px 15px;
        width: 60px;
        box-shadow: none;
      "">
        F<br>
      </div>
      <div style=""
        text-align: center;
        font-size: 24px;
        opacity: 0.3;
        border: 2px solid #999;
        border-radius: 8px;
        padding: 20px 15px;
        width: 60px;
        box-shadow: none;
      "">
        G<br>
      </div>
      <div style=""
        text-align: center;
        font-size: 24px;
        opacity: 0.3;
        border: 2px solid #999;
        border-radius: 8px;
        padding: 20px 15px;
        width: 60px;
        box-shadow: none;
      "">
        H<br>
      </div>
      <div style=""
        text-align: center;
        font-size: 24px;
        opacity: 1;
        border: 2px solid #000;
        border-radius: 8px;
        padding: 20px 15px;
        width: 60px;
        box-shadow: 0 0 10px #333;
      "">
        J<br>
      </div></div></div>","null","","","","","","","","","","","",""
"","","","","","html-keyboard-response","24","2.1.0","143879","667","
    <div style=""text-align: center;"">
      <img src=""static/images/10.jpg"" style=""width: 400px; height: 400px; margin-bottom: 30px;"">
      <div style=""display: flex; justify-content: center; gap: 40px;"">
      <div style=""
        text-align: center;
        font-size: 24px;
        opacity: 0.3;
        border: 2px solid #999;
        border-radius: 8px;
        padding: 20px 15px;
        width: 60px;
        box-shadow: none;
      "">
        F<br>
      </div>
      <div style=""
        text-align: center;
        font-size: 24px;
        opacity: 0.3;
        border: 2px solid #999;
        border-radius: 8px;
        padding: 20px 15px;
        width: 60px;
        box-shadow: none;
      "">
        G<br>
      </div>
      <div style=""
        text-align: center;
        font-size: 24px;
        opacity: 0.3;
        border: 2px solid #999;
        border-radius: 8px;
        padding: 20px 15px;
        width: 60px;
        box-shadow: none;
      "">
        H<br>
      </div>
      <div style=""
        text-align: center;
        font-size: 24px;
        opacity: 1;
        border: 2px solid #000;
        border-radius: 8px;
        padding: 20px 15px;
        width: 60px;
        box-shadow: 0 0 10px #333;
      "">
        J<br>
      </div></div></div>","j","3","0","fc","10","A2","{""A3"":""g"",""A4"":""h"",""A2"":""j"",""A1"":""f""}","{""A1"":0.8,""A2"":0.4,""A3"":0.5,""A4"":0.1}","Condition 1","0","","",""
"","","","","","html-keyboard-response","25","2.1.0","144883","null","
    <div style=""text-align: center;"">
      <img src=""static/images/feedback_0.jpg"" style=""width: 400px; height: 400px; margin-bottom: 30px;"">
      <div style=""display: flex; justify-content: center; gap: 40px;"">
      <div style=""
        text-align: center;
        font-size: 24px;
        opacity: 0.3;
        border: 2px solid #999;
        border-radius: 8px;
        padding: 20px 15px;
        width: 60px;
        box-shadow: none;
      "">
        F<br>
      </div>
      <div style=""
        text-align: center;
        font-size: 24px;
        opacity: 0.3;
        border: 2px solid #999;
        border-radius: 8px;
        padding: 20px 15px;
        width: 60px;
        box-shadow: none;
      "">
        G<br>
      </div>
      <div style=""
        text-align: center;
        font-size: 24px;
        opacity: 0.3;
        border: 2px solid #999;
        border-radius: 8px;
        padding: 20px 15px;
        width: 60px;
        box-shadow: none;
      "">
        H<br>
      </div>
      <div style=""
        text-align: center;
        font-size: 24px;
        opacity: 1;
        border: 2px solid #000;
        border-radius: 8px;
        padding: 20px 15px;
        width: 60px;
        box-shadow: 0 0 10px #333;
      "">
        J<br>
      </div></div></div>","null","","","","","","","","","","","",""
"","","","","","html-keyboard-response","26","2.1.0","145386","null","
    <div style=""text-align: center;"">
      <img src=""static/images/fix_cross.jpg"" style=""width: 400px; height: 400px; margin-bottom: 30px;"">
      <div style=""display: flex; justify-content: center; gap: 40px;"">
      <div style=""
        text-align: center;
        font-size: 24px;
        opacity: 0.3;
        border: 2px solid #999;
        border-radius: 8px;
        padding: 20px 15px;
        width: 60px;
        box-shadow: none;
      "">
        F<br>
      </div>
      <div style=""
        text-align: center;
        font-size: 24px;
        opacity: 0.3;
        border: 2px solid #999;
        border-radius: 8px;
        padding: 20px 15px;
        width: 60px;
        box-shadow: none;
      "">
        G<br>
      </div>
      <div style=""
        text-align: center;
        font-size: 24px;
        opacity: 0.3;
        border: 2px solid #999;
        border-radius: 8px;
        padding: 20px 15px;
        width: 60px;
        box-shadow: none;
      "">
        H<br>
      </div>
      <div style=""
        text-align: center;
        font-size: 24px;
        opacity: 1;
        border: 2px solid #000;
        border-radius: 8px;
        padding: 20px 15px;
        width: 60px;
        box-shadow: 0 0 10px #333;
      "">
        J<br>
      </div></div></div>","null","","","","","","","","","","","",""
"","","","","","html-keyboard-response","27","2.1.0","145848","461","
    <div style=""text-align: center;"">
      <img src=""static/images/10.jpg"" style=""width: 400px; height: 400px; margin-bottom: 30px;"">
      <div style=""display: flex; justify-content: center; gap: 40px;"">
      <div style=""
        text-align: center;
        font-size: 24px;
        opacity: 0.3;
        border: 2px solid #999;
        border-radius: 8px;
        padding: 20px 15px;
        width: 60px;
        box-shadow: none;
      "">
        F<br>
      </div>
      <div style=""
        text-align: center;
        font-size: 24px;
        opacity: 0.3;
        border: 2px solid #999;
        border-radius: 8px;
        padding: 20px 15px;
        width: 60px;
        box-shadow: none;
      "">
        G<br>
      </div>
      <div style=""
        text-align: center;
        font-size: 24px;
        opacity: 0.3;
        border: 2px solid #999;
        border-radius: 8px;
        padding: 20px 15px;
        width: 60px;
        box-shadow: none;
      "">
        H<br>
      </div>
      <div style=""
        text-align: center;
        font-size: 24px;
        opacity: 1;
        border: 2px solid #000;
        border-radius: 8px;
        padding: 20px 15px;
        width: 60px;
        box-shadow: 0 0 10px #333;
      "">
        J<br>
      </div></div></div>","j","3","1","fc","10","A2","{""A3"":""g"",""A4"":""h"",""A2"":""j"",""A1"":""f""}","{""A1"":0.8,""A2"":0.4,""A3"":0.5,""A4"":0.1}","Condition 1","1","","",""
"","","","","","html-keyboard-response","28","2.1.0","146852","null","
    <div style=""text-align: center;"">
      <img src=""static/images/feedback_1.jpg"" style=""width: 400px; height: 400px; margin-bottom: 30px;"">
      <div style=""display: flex; justify-content: center; gap: 40px;"">
      <div style=""
        text-align: center;
        font-size: 24px;
        opacity: 0.3;
        border: 2px solid #999;
        border-radius: 8px;
        padding: 20px 15px;
        width: 60px;
        box-shadow: none;
      "">
        F<br>
      </div>
      <div style=""
        text-align: center;
        font-size: 24px;
        opacity: 0.3;
        border: 2px solid #999;
        border-radius: 8px;
        padding: 20px 15px;
        width: 60px;
        box-shadow: none;
      "">
        G<br>
      </div>
      <div style=""
        text-align: center;
        font-size: 24px;
        opacity: 0.3;
        border: 2px solid #999;
        border-radius: 8px;
        padding: 20px 15px;
        width: 60px;
        box-shadow: none;
      "">
        H<br>
      </div>
      <div style=""
        text-align: center;
        font-size: 24px;
        opacity: 1;
        border: 2px solid #000;
        border-radius: 8px;
        padding: 20px 15px;
        width: 60px;
        box-shadow: 0 0 10px #333;
      "">
        J<br>
      </div></div></div>","null","","","","","","","","","","","",""
"","","","","","html-keyboard-response","29","2.1.0","147355","null","
    <div style=""text-align: center;"">
      <img src=""static/images/fix_cross.jpg"" style=""width: 400px; height: 400px; margin-bottom: 30px;"">
      <div style=""display: flex; justify-content: center; gap: 40px;"">
      <div style=""
        text-align: center;
        font-size: 24px;
        opacity: 0.3;
        border: 2px solid #999;
        border-radius: 8px;
        padding: 20px 15px;
        width: 60px;
        box-shadow: none;
      "">
        F<br>
      </div>
      <div style=""
        text-align: center;
        font-size: 24px;
        opacity: 0.3;
        border: 2px solid #999;
        border-radius: 8px;
        padding: 20px 15px;
        width: 60px;
        box-shadow: none;
      "">
        G<br>
      </div>
      <div style=""
        text-align: center;
        font-size: 24px;
        opacity: 0.3;
        border: 2px solid #999;
        border-radius: 8px;
        padding: 20px 15px;
        width: 60px;
        box-shadow: none;
      "">
        H<br>
      </div>
      <div style=""
        text-align: center;
        font-size: 24px;
        opacity: 1;
        border: 2px solid #000;
        border-radius: 8px;
        padding: 20px 15px;
        width: 60px;
        box-shadow: 0 0 10px #333;
      "">
        J<br>
      </div></div></div>","null","","","","","","","","","","","",""
"","","","","","html-keyboard-response","30","2.1.0","147678","322","
    <div style=""text-align: center;"">
      <img src=""static/images/10.jpg"" style=""width: 400px; height: 400px; margin-bottom: 30px;"">
      <div style=""display: flex; justify-content: center; gap: 40px;"">
      <div style=""
        text-align: center;
        font-size: 24px;
        opacity: 0.3;
        border: 2px solid #999;
        border-radius: 8px;
        padding: 20px 15px;
        width: 60px;
        box-shadow: none;
      "">
        F<br>
      </div>
      <div style=""
        text-align: center;
        font-size: 24px;
        opacity: 0.3;
        border: 2px solid #999;
        border-radius: 8px;
        padding: 20px 15px;
        width: 60px;
        box-shadow: none;
      "">
        G<br>
      </div>
      <div style=""
        text-align: center;
        font-size: 24px;
        opacity: 0.3;
        border: 2px solid #999;
        border-radius: 8px;
        padding: 20px 15px;
        width: 60px;
        box-shadow: none;
      "">
        H<br>
      </div>
      <div style=""
        text-align: center;
        font-size: 24px;
        opacity: 1;
        border: 2px solid #000;
        border-radius: 8px;
        padding: 20px 15px;
        width: 60px;
        box-shadow: 0 0 10px #333;
      "">
        J<br>
      </div></div></div>","j","3","2","fc","10","A2","{""A3"":""g"",""A4"":""h"",""A2"":""j"",""A1"":""f""}","{""A1"":0.8,""A2"":0.4,""A3"":0.5,""A4"":0.1}","Condition 1","1","","",""
"","","","","","html-keyboard-response","31","2.1.0","148682","null","
    <div style=""text-align: center;"">
      <img src=""static/images/feedback_1.jpg"" style=""width: 400px; height: 400px; margin-bottom: 30px;"">
      <div style=""display: flex; justify-content: center; gap: 40px;"">
      <div style=""
        text-align: center;
        font-size: 24px;
        opacity: 0.3;
        border: 2px solid #999;
        border-radius: 8px;
        padding: 20px 15px;
        width: 60px;
        box-shadow: none;
      "">
        F<br>
      </div>
      <div style=""
        text-align: center;
        font-size: 24px;
        opacity: 0.3;
        border: 2px solid #999;
        border-radius: 8px;
        padding: 20px 15px;
        width: 60px;
        box-shadow: none;
      "">
        G<br>
      </div>
      <div style=""
        text-align: center;
        font-size: 24px;
        opacity: 0.3;
        border: 2px solid #999;
        border-radius: 8px;
        padding: 20px 15px;
        width: 60px;
        box-shadow: none;
      "">
        H<br>
      </div>
      <div style=""
        text-align: center;
        font-size: 24px;
        opacity: 1;
        border: 2px solid #000;
        border-radius: 8px;
        padding: 20px 15px;
        width: 60px;
        box-shadow: 0 0 10px #333;
      "">
        J<br>
      </div></div></div>","null","","","","","","","","","","","",""
"","","","","","html-keyboard-response","32","2.1.0","149185","null","
    <div style=""text-align: center;"">
      <img src=""static/images/fix_cross.jpg"" style=""width: 400px; height: 400px; margin-bottom: 30px;"">
      <div style=""display: flex; justify-content: center; gap: 40px;"">
      <div style=""
        text-align: center;
        font-size: 24px;
        opacity: 0.3;
        border: 2px solid #999;
        border-radius: 8px;
        padding: 20px 15px;
        width: 60px;
        box-shadow: none;
      "">
        F<br>
      </div>
      <div style=""
        text-align: center;
        font-size: 24px;
        opacity: 0.3;
        border: 2px solid #999;
        border-radius: 8px;
        padding: 20px 15px;
        width: 60px;
        box-shadow: none;
      "">
        G<br>
      </div>
      <div style=""
        text-align: center;
        font-size: 24px;
        opacity: 0.3;
        border: 2px solid #999;
        border-radius: 8px;
        padding: 20px 15px;
        width: 60px;
        box-shadow: none;
      "">
        H<br>
      </div>
      <div style=""
        text-align: center;
        font-size: 24px;
        opacity: 1;
        border: 2px solid #000;
        border-radius: 8px;
        padding: 20px 15px;
        width: 60px;
        box-shadow: 0 0 10px #333;
      "">
        J<br>
      </div></div></div>","null","","","","","","","","","","","",""
"","","","","","html-keyboard-response","33","2.1.0","149653","466","
    <div style=""text-align: center;"">
      <img src=""static/images/10.jpg"" style=""width: 400px; height: 400px; margin-bottom: 30px;"">
      <div style=""display: flex; justify-content: center; gap: 40px;"">
      <div style=""
        text-align: center;
        font-size: 24px;
        opacity: 0.3;
        border: 2px solid #999;
        border-radius: 8px;
        padding: 20px 15px;
        width: 60px;
        box-shadow: none;
      "">
        F<br>
      </div>
      <div style=""
        text-align: center;
        font-size: 24px;
        opacity: 0.3;
        border: 2px solid #999;
        border-radius: 8px;
        padding: 20px 15px;
        width: 60px;
        box-shadow: none;
      "">
        G<br>
      </div>
      <div style=""
        text-align: center;
        font-size: 24px;
        opacity: 0.3;
        border: 2px solid #999;
        border-radius: 8px;
        padding: 20px 15px;
        width: 60px;
        box-shadow: none;
      "">
        H<br>
      </div>
      <div style=""
        text-align: center;
        font-size: 24px;
        opacity: 1;
        border: 2px solid #000;
        border-radius: 8px;
        padding: 20px 15px;
        width: 60px;
        box-shadow: 0 0 10px #333;
      "">
        J<br>
      </div></div></div>","j","3","3","fc","10","A2","{""A3"":""g"",""A4"":""h"",""A2"":""j"",""A1"":""f""}","{""A1"":0.8,""A2"":0.4,""A3"":0.5,""A4"":0.1}","Condition 1","0","","",""
"","","","","","html-keyboard-response","34","2.1.0","150656","null","
    <div style=""text-align: center;"">
      <img src=""static/images/feedback_0.jpg"" style=""width: 400px; height: 400px; margin-bottom: 30px;"">
      <div style=""display: flex; justify-content: center; gap: 40px;"">
      <div style=""
        text-align: center;
        font-size: 24px;
        opacity: 0.3;
        border: 2px solid #999;
        border-radius: 8px;
        padding: 20px 15px;
        width: 60px;
        box-shadow: none;
      "">
        F<br>
      </div>
      <div style=""
        text-align: center;
        font-size: 24px;
        opacity: 0.3;
        border: 2px solid #999;
        border-radius: 8px;
        padding: 20px 15px;
        width: 60px;
        box-shadow: none;
      "">
        G<br>
      </div>
      <div style=""
        text-align: center;
        font-size: 24px;
        opacity: 0.3;
        border: 2px solid #999;
        border-radius: 8px;
        padding: 20px 15px;
        width: 60px;
        box-shadow: none;
      "">
        H<br>
      </div>
      <div style=""
        text-align: center;
        font-size: 24px;
        opacity: 1;
        border: 2px solid #000;
        border-radius: 8px;
        padding: 20px 15px;
        width: 60px;
        box-shadow: 0 0 10px #333;
      "">
        J<br>
      </div></div></div>","null","","","","","","","","","","","",""
"","","","","","html-keyboard-response","35","2.1.0","151160","null","
    <div style=""text-align: center;"">
      <img src=""static/images/fix_cross.jpg"" style=""width: 400px; height: 400px; margin-bottom: 30px;"">
      <div style=""display: flex; justify-content: center; gap: 40px;"">
      <div style=""
        text-align: center;
        font-size: 24px;
        opacity: 0.3;
        border: 2px solid #999;
        border-radius: 8px;
        padding: 20px 15px;
        width: 60px;
        box-shadow: none;
      "">
        F<br>
      </div>
      <div style=""
        text-align: center;
        font-size: 24px;
        opacity: 0.3;
        border: 2px solid #999;
        border-radius: 8px;
        padding: 20px 15px;
        width: 60px;
        box-shadow: none;
      "">
        G<br>
      </div>
      <div style=""
        text-align: center;
        font-size: 24px;
        opacity: 0.3;
        border: 2px solid #999;
        border-radius: 8px;
        padding: 20px 15px;
        width: 60px;
        box-shadow: none;
      "">
        H<br>
      </div>
      <div style=""
        text-align: center;
        font-size: 24px;
        opacity: 1;
        border: 2px solid #000;
        border-radius: 8px;
        padding: 20px 15px;
        width: 60px;
        box-shadow: 0 0 10px #333;
      "">
        J<br>
      </div></div></div>","null","","","","","","","","","","","",""
"","","","","","html-keyboard-response","36","2.1.0","151601","439","
    <div style=""text-align: center;"">
      <img src=""static/images/10.jpg"" style=""width: 400px; height: 400px; margin-bottom: 30px;"">
      <div style=""display: flex; justify-content: center; gap: 40px;"">
      <div style=""
        text-align: center;
        font-size: 24px;
        opacity: 0.3;
        border: 2px solid #999;
        border-radius: 8px;
        padding: 20px 15px;
        width: 60px;
        box-shadow: none;
      "">
        F<br>
      </div>
      <div style=""
        text-align: center;
        font-size: 24px;
        opacity: 0.3;
        border: 2px solid #999;
        border-radius: 8px;
        padding: 20px 15px;
        width: 60px;
        box-shadow: none;
      "">
        G<br>
      </div>
      <div style=""
        text-align: center;
        font-size: 24px;
        opacity: 0.3;
        border: 2px solid #999;
        border-radius: 8px;
        padding: 20px 15px;
        width: 60px;
        box-shadow: none;
      "">
        H<br>
      </div>
      <div style=""
        text-align: center;
        font-size: 24px;
        opacity: 1;
        border: 2px solid #000;
        border-radius: 8px;
        padding: 20px 15px;
        width: 60px;
        box-shadow: 0 0 10px #333;
      "">
        J<br>
      </div></div></div>","j","3","4","fc","10","A2","{""A3"":""g"",""A4"":""h"",""A2"":""j"",""A1"":""f""}","{""A1"":0.8,""A2"":0.4,""A3"":0.5,""A4"":0.1}","Condition 1","0","","",""
"","","","","","html-keyboard-response","37","2.1.0","152604","null","
    <div style=""text-align: center;"">
      <img src=""static/images/feedback_0.jpg"" style=""width: 400px; height: 400px; margin-bottom: 30px;"">
      <div style=""display: flex; justify-content: center; gap: 40px;"">
      <div style=""
        text-align: center;
        font-size: 24px;
        opacity: 0.3;
        border: 2px solid #999;
        border-radius: 8px;
        padding: 20px 15px;
        width: 60px;
        box-shadow: none;
      "">
        F<br>
      </div>
      <div style=""
        text-align: center;
        font-size: 24px;
        opacity: 0.3;
        border: 2px solid #999;
        border-radius: 8px;
        padding: 20px 15px;
        width: 60px;
        box-shadow: none;
      "">
        G<br>
      </div>
      <div style=""
        text-align: center;
        font-size: 24px;
        opacity: 0.3;
        border: 2px solid #999;
        border-radius: 8px;
        padding: 20px 15px;
        width: 60px;
        box-shadow: none;
      "">
        H<br>
      </div>
      <div style=""
        text-align: center;
        font-size: 24px;
        opacity: 1;
        border: 2px solid #000;
        border-radius: 8px;
        padding: 20px 15px;
        width: 60px;
        box-shadow: 0 0 10px #333;
      "">
        J<br>
      </div></div></div>","null","","","","","","","","","","","",""
"","","","","","html-keyboard-response","38","2.1.0","153107","null","
    <div style=""text-align: center;"">
      <img src=""static/images/fix_cross.jpg"" style=""width: 400px; height: 400px; margin-bottom: 30px;"">
      <div style=""display: flex; justify-content: center; gap: 40px;"">
      <div style=""
        text-align: center;
        font-size: 24px;
        opacity: 1;
        border: 2px solid #000;
        border-radius: 8px;
        padding: 20px 15px;
        width: 60px;
        box-shadow: 0 0 10px #333;
      "">
        F<br>
      </div>
      <div style=""
        text-align: center;
        font-size: 24px;
        opacity: 0.3;
        border: 2px solid #999;
        border-radius: 8px;
        padding: 20px 15px;
        width: 60px;
        box-shadow: none;
      "">
        G<br>
      </div>
      <div style=""
        text-align: center;
        font-size: 24px;
        opacity: 0.3;
        border: 2px solid #999;
        border-radius: 8px;
        padding: 20px 15px;
        width: 60px;
        box-shadow: none;
      "">
        H<br>
      </div>
      <div style=""
        text-align: center;
        font-size: 24px;
        opacity: 0.3;
        border: 2px solid #999;
        border-radius: 8px;
        padding: 20px 15px;
        width: 60px;
        box-shadow: none;
      "">
        J<br>
      </div></div></div>","null","","","","","","","","","","","",""
"","","","","","html-keyboard-response","39","2.1.0","153702","593","
    <div style=""text-align: center;"">
      <img src=""static/images/10.jpg"" style=""width: 400px; height: 400px; margin-bottom: 30px;"">
      <div style=""display: flex; justify-content: center; gap: 40px;"">
      <div style=""
        text-align: center;
        font-size: 24px;
        opacity: 1;
        border: 2px solid #000;
        border-radius: 8px;
        padding: 20px 15px;
        width: 60px;
        box-shadow: 0 0 10px #333;
      "">
        F<br>
      </div>
      <div style=""
        text-align: center;
        font-size: 24px;
        opacity: 0.3;
        border: 2px solid #999;
        border-radius: 8px;
        padding: 20px 15px;
        width: 60px;
        box-shadow: none;
      "">
        G<br>
      </div>
      <div style=""
        text-align: center;
        font-size: 24px;
        opacity: 0.3;
        border: 2px solid #999;
        border-radius: 8px;
        padding: 20px 15px;
        width: 60px;
        box-shadow: none;
      "">
        H<br>
      </div>
      <div style=""
        text-align: center;
        font-size: 24px;
        opacity: 0.3;
        border: 2px solid #999;
        border-radius: 8px;
        padding: 20px 15px;
        width: 60px;
        box-shadow: none;
      "">
        J<br>
      </div></div></div>","f","3","0","fc","10","A1","{""A3"":""g"",""A4"":""h"",""A2"":""j"",""A1"":""f""}","{""A1"":0.8,""A2"":0.4,""A3"":0.5,""A4"":0.1}","Condition 1","0","","",""
"","","","","","html-keyboard-response","40","2.1.0","154703","null","
    <div style=""text-align: center;"">
      <img src=""static/images/feedback_0.jpg"" style=""width: 400px; height: 400px; margin-bottom: 30px;"">
      <div style=""display: flex; justify-content: center; gap: 40px;"">
      <div style=""
        text-align: center;
        font-size: 24px;
        opacity: 1;
        border: 2px solid #000;
        border-radius: 8px;
        padding: 20px 15px;
        width: 60px;
        box-shadow: 0 0 10px #333;
      "">
        F<br>
      </div>
      <div style=""
        text-align: center;
        font-size: 24px;
        opacity: 0.3;
        border: 2px solid #999;
        border-radius: 8px;
        padding: 20px 15px;
        width: 60px;
        box-shadow: none;
      "">
        G<br>
      </div>
      <div style=""
        text-align: center;
        font-size: 24px;
        opacity: 0.3;
        border: 2px solid #999;
        border-radius: 8px;
        padding: 20px 15px;
        width: 60px;
        box-shadow: none;
      "">
        H<br>
      </div>
      <div style=""
        text-align: center;
        font-size: 24px;
        opacity: 0.3;
        border: 2px solid #999;
        border-radius: 8px;
        padding: 20px 15px;
        width: 60px;
        box-shadow: none;
      "">
        J<br>
      </div></div></div>","null","","","","","","","","","","","",""
"","","","","","html-keyboard-response","41","2.1.0","155206","null","
    <div style=""text-align: center;"">
      <img src=""static/images/fix_cross.jpg"" style=""width: 400px; height: 400px; margin-bottom: 30px;"">
      <div style=""display: flex; justify-content: center; gap: 40px;"">
      <div style=""
        text-align: center;
        font-size: 24px;
        opacity: 1;
        border: 2px solid #000;
        border-radius: 8px;
        padding: 20px 15px;
        width: 60px;
        box-shadow: 0 0 10px #333;
      "">
        F<br>
      </div>
      <div style=""
        text-align: center;
        font-size: 24px;
        opacity: 0.3;
        border: 2px solid #999;
        border-radius: 8px;
        padding: 20px 15px;
        width: 60px;
        box-shadow: none;
      "">
        G<br>
      </div>
      <div style=""
        text-align: center;
        font-size: 24px;
        opacity: 0.3;
        border: 2px solid #999;
        border-radius: 8px;
        padding: 20px 15px;
        width: 60px;
        box-shadow: none;
      "">
        H<br>
      </div>
      <div style=""
        text-align: center;
        font-size: 24px;
        opacity: 0.3;
        border: 2px solid #999;
        border-radius: 8px;
        padding: 20px 15px;
        width: 60px;
        box-shadow: none;
      "">
        J<br>
      </div></div></div>","null","","","","","","","","","","","",""
"","","","","","html-keyboard-response","42","2.1.0","155730","522","
    <div style=""text-align: center;"">
      <img src=""static/images/10.jpg"" style=""width: 400px; height: 400px; margin-bottom: 30px;"">
      <div style=""display: flex; justify-content: center; gap: 40px;"">
      <div style=""
        text-align: center;
        font-size: 24px;
        opacity: 1;
        border: 2px solid #000;
        border-radius: 8px;
        padding: 20px 15px;
        width: 60px;
        box-shadow: 0 0 10px #333;
      "">
        F<br>
      </div>
      <div style=""
        text-align: center;
        font-size: 24px;
        opacity: 0.3;
        border: 2px solid #999;
        border-radius: 8px;
        padding: 20px 15px;
        width: 60px;
        box-shadow: none;
      "">
        G<br>
      </div>
      <div style=""
        text-align: center;
        font-size: 24px;
        opacity: 0.3;
        border: 2px solid #999;
        border-radius: 8px;
        padding: 20px 15px;
        width: 60px;
        box-shadow: none;
      "">
        H<br>
      </div>
      <div style=""
        text-align: center;
        font-size: 24px;
        opacity: 0.3;
        border: 2px solid #999;
        border-radius: 8px;
        padding: 20px 15px;
        width: 60px;
        box-shadow: none;
      "">
        J<br>
      </div></div></div>","f","3","1","fc","10","A1","{""A3"":""g"",""A4"":""h"",""A2"":""j"",""A1"":""f""}","{""A1"":0.8,""A2"":0.4,""A3"":0.5,""A4"":0.1}","Condition 1","1","","",""
"","","","","","html-keyboard-response","43","2.1.0","156732","null","
    <div style=""text-align: center;"">
      <img src=""static/images/feedback_1.jpg"" style=""width: 400px; height: 400px; margin-bottom: 30px;"">
      <div style=""display: flex; justify-content: center; gap: 40px;"">
      <div style=""
        text-align: center;
        font-size: 24px;
        opacity: 1;
        border: 2px solid #000;
        border-radius: 8px;
        padding: 20px 15px;
        width: 60px;
        box-shadow: 0 0 10px #333;
      "">
        F<br>
      </div>
      <div style=""
        text-align: center;
        font-size: 24px;
        opacity: 0.3;
        border: 2px solid #999;
        border-radius: 8px;
        padding: 20px 15px;
        width: 60px;
        box-shadow: none;
      "">
        G<br>
      </div>
      <div style=""
        text-align: center;
        font-size: 24px;
        opacity: 0.3;
        border: 2px solid #999;
        border-radius: 8px;
        padding: 20px 15px;
        width: 60px;
        box-shadow: none;
      "">
        H<br>
      </div>
      <div style=""
        text-align: center;
        font-size: 24px;
        opacity: 0.3;
        border: 2px solid #999;
        border-radius: 8px;
        padding: 20px 15px;
        width: 60px;
        box-shadow: none;
      "">
        J<br>
      </div></div></div>","null","","","","","","","","","","","",""
"","","","","","html-keyboard-response","44","2.1.0","157236","null","
    <div style=""text-align: center;"">
      <img src=""static/images/fix_cross.jpg"" style=""width: 400px; height: 400px; margin-bottom: 30px;"">
      <div style=""display: flex; justify-content: center; gap: 40px;"">
      <div style=""
        text-align: center;
        font-size: 24px;
        opacity: 1;
        border: 2px solid #000;
        border-radius: 8px;
        padding: 20px 15px;
        width: 60px;
        box-shadow: 0 0 10px #333;
      "">
        F<br>
      </div>
      <div style=""
        text-align: center;
        font-size: 24px;
        opacity: 0.3;
        border: 2px solid #999;
        border-radius: 8px;
        padding: 20px 15px;
        width: 60px;
        box-shadow: none;
      "">
        G<br>
      </div>
      <div style=""
        text-align: center;
        font-size: 24px;
        opacity: 0.3;
        border: 2px solid #999;
        border-radius: 8px;
        padding: 20px 15px;
        width: 60px;
        box-shadow: none;
      "">
        H<br>
      </div>
      <div style=""
        text-align: center;
        font-size: 24px;
        opacity: 0.3;
        border: 2px solid #999;
        border-radius: 8px;
        padding: 20px 15px;
        width: 60px;
        box-shadow: none;
      "">
        J<br>
      </div></div></div>","null","","","","","","","","","","","",""
"","","","","","html-keyboard-response","45","2.1.0","157706","468","
    <div style=""text-align: center;"">
      <img src=""static/images/10.jpg"" style=""width: 400px; height: 400px; margin-bottom: 30px;"">
      <div style=""display: flex; justify-content: center; gap: 40px;"">
      <div style=""
        text-align: center;
        font-size: 24px;
        opacity: 1;
        border: 2px solid #000;
        border-radius: 8px;
        padding: 20px 15px;
        width: 60px;
        box-shadow: 0 0 10px #333;
      "">
        F<br>
      </div>
      <div style=""
        text-align: center;
        font-size: 24px;
        opacity: 0.3;
        border: 2px solid #999;
        border-radius: 8px;
        padding: 20px 15px;
        width: 60px;
        box-shadow: none;
      "">
        G<br>
      </div>
      <div style=""
        text-align: center;
        font-size: 24px;
        opacity: 0.3;
        border: 2px solid #999;
        border-radius: 8px;
        padding: 20px 15px;
        width: 60px;
        box-shadow: none;
      "">
        H<br>
      </div>
      <div style=""
        text-align: center;
        font-size: 24px;
        opacity: 0.3;
        border: 2px solid #999;
        border-radius: 8px;
        padding: 20px 15px;
        width: 60px;
        box-shadow: none;
      "">
        J<br>
      </div></div></div>","f","3","2","fc","10","A1","{""A3"":""g"",""A4"":""h"",""A2"":""j"",""A1"":""f""}","{""A1"":0.8,""A2"":0.4,""A3"":0.5,""A4"":0.1}","Condition 1","1","","",""
"","","","","","html-keyboard-response","46","2.1.0","158710","null","
    <div style=""text-align: center;"">
      <img src=""static/images/feedback_1.jpg"" style=""width: 400px; height: 400px; margin-bottom: 30px;"">
      <div style=""display: flex; justify-content: center; gap: 40px;"">
      <div style=""
        text-align: center;
        font-size: 24px;
        opacity: 1;
        border: 2px solid #000;
        border-radius: 8px;
        padding: 20px 15px;
        width: 60px;
        box-shadow: 0 0 10px #333;
      "">
        F<br>
      </div>
      <div style=""
        text-align: center;
        font-size: 24px;
        opacity: 0.3;
        border: 2px solid #999;
        border-radius: 8px;
        padding: 20px 15px;
        width: 60px;
        box-shadow: none;
      "">
        G<br>
      </div>
      <div style=""
        text-align: center;
        font-size: 24px;
        opacity: 0.3;
        border: 2px solid #999;
        border-radius: 8px;
        padding: 20px 15px;
        width: 60px;
        box-shadow: none;
      "">
        H<br>
      </div>
      <div style=""
        text-align: center;
        font-size: 24px;
        opacity: 0.3;
        border: 2px solid #999;
        border-radius: 8px;
        padding: 20px 15px;
        width: 60px;
        box-shadow: none;
      "">
        J<br>
      </div></div></div>","null","","","","","","","","","","","",""
"","","","","","html-keyboard-response","47","2.1.0","159213","null","
    <div style=""text-align: center;"">
      <img src=""static/images/fix_cross.jpg"" style=""width: 400px; height: 400px; margin-bottom: 30px;"">
      <div style=""display: flex; justify-content: center; gap: 40px;"">
      <div style=""
        text-align: center;
        font-size: 24px;
        opacity: 1;
        border: 2px solid #000;
        border-radius: 8px;
        padding: 20px 15px;
        width: 60px;
        box-shadow: 0 0 10px #333;
      "">
        F<br>
      </div>
      <div style=""
        text-align: center;
        font-size: 24px;
        opacity: 0.3;
        border: 2px solid #999;
        border-radius: 8px;
        padding: 20px 15px;
        width: 60px;
        box-shadow: none;
      "">
        G<br>
      </div>
      <div style=""
        text-align: center;
        font-size: 24px;
        opacity: 0.3;
        border: 2px solid #999;
        border-radius: 8px;
        padding: 20px 15px;
        width: 60px;
        box-shadow: none;
      "">
        H<br>
      </div>
      <div style=""
        text-align: center;
        font-size: 24px;
        opacity: 0.3;
        border: 2px solid #999;
        border-radius: 8px;
        padding: 20px 15px;
        width: 60px;
        box-shadow: none;
      "">
        J<br>
      </div></div></div>","null","","","","","","","","","","","",""
"","","","","","html-keyboard-response","48","2.1.0","159539","324","
    <div style=""text-align: center;"">
      <img src=""static/images/10.jpg"" style=""width: 400px; height: 400px; margin-bottom: 30px;"">
      <div style=""display: flex; justify-content: center; gap: 40px;"">
      <div style=""
        text-align: center;
        font-size: 24px;
        opacity: 1;
        border: 2px solid #000;
        border-radius: 8px;
        padding: 20px 15px;
        width: 60px;
        box-shadow: 0 0 10px #333;
      "">
        F<br>
      </div>
      <div style=""
        text-align: center;
        font-size: 24px;
        opacity: 0.3;
        border: 2px solid #999;
        border-radius: 8px;
        padding: 20px 15px;
        width: 60px;
        box-shadow: none;
      "">
        G<br>
      </div>
      <div style=""
        text-align: center;
        font-size: 24px;
        opacity: 0.3;
        border: 2px solid #999;
        border-radius: 8px;
        padding: 20px 15px;
        width: 60px;
        box-shadow: none;
      "">
        H<br>
      </div>
      <div style=""
        text-align: center;
        font-size: 24px;
        opacity: 0.3;
        border: 2px solid #999;
        border-radius: 8px;
        padding: 20px 15px;
        width: 60px;
        box-shadow: none;
      "">
        J<br>
      </div></div></div>","f","3","3","fc","10","A1","{""A3"":""g"",""A4"":""h"",""A2"":""j"",""A1"":""f""}","{""A1"":0.8,""A2"":0.4,""A3"":0.5,""A4"":0.1}","Condition 1","1","","",""
"","","","","","html-keyboard-response","49","2.1.0","160541","null","
    <div style=""text-align: center;"">
      <img src=""static/images/feedback_1.jpg"" style=""width: 400px; height: 400px; margin-bottom: 30px;"">
      <div style=""display: flex; justify-content: center; gap: 40px;"">
      <div style=""
        text-align: center;
        font-size: 24px;
        opacity: 1;
        border: 2px solid #000;
        border-radius: 8px;
        padding: 20px 15px;
        width: 60px;
        box-shadow: 0 0 10px #333;
      "">
        F<br>
      </div>
      <div style=""
        text-align: center;
        font-size: 24px;
        opacity: 0.3;
        border: 2px solid #999;
        border-radius: 8px;
        padding: 20px 15px;
        width: 60px;
        box-shadow: none;
      "">
        G<br>
      </div>
      <div style=""
        text-align: center;
        font-size: 24px;
        opacity: 0.3;
        border: 2px solid #999;
        border-radius: 8px;
        padding: 20px 15px;
        width: 60px;
        box-shadow: none;
      "">
        H<br>
      </div>
      <div style=""
        text-align: center;
        font-size: 24px;
        opacity: 0.3;
        border: 2px solid #999;
        border-radius: 8px;
        padding: 20px 15px;
        width: 60px;
        box-shadow: none;
      "">
        J<br>
      </div></div></div>","null","","","","","","","","","","","",""
"","","","","","html-keyboard-response","50","2.1.0","161045","null","
    <div style=""text-align: center;"">
      <img src=""static/images/fix_cross.jpg"" style=""width: 400px; height: 400px; margin-bottom: 30px;"">
      <div style=""display: flex; justify-content: center; gap: 40px;"">
      <div style=""
        text-align: center;
        font-size: 24px;
        opacity: 1;
        border: 2px solid #000;
        border-radius: 8px;
        padding: 20px 15px;
        width: 60px;
        box-shadow: 0 0 10px #333;
      "">
        F<br>
      </div>
      <div style=""
        text-align: center;
        font-size: 24px;
        opacity: 0.3;
        border: 2px solid #999;
        border-radius: 8px;
        padding: 20px 15px;
        width: 60px;
        box-shadow: none;
      "">
        G<br>
      </div>
      <div style=""
        text-align: center;
        font-size: 24px;
        opacity: 0.3;
        border: 2px solid #999;
        border-radius: 8px;
        padding: 20px 15px;
        width: 60px;
        box-shadow: none;
      "">
        H<br>
      </div>
      <div style=""
        text-align: center;
        font-size: 24px;
        opacity: 0.3;
        border: 2px solid #999;
        border-radius: 8px;
        padding: 20px 15px;
        width: 60px;
        box-shadow: none;
      "">
        J<br>
      </div></div></div>","null","","","","","","","","","","","",""
"","","","","","html-keyboard-response","51","2.1.0","161469","423","
    <div style=""text-align: center;"">
      <img src=""static/images/10.jpg"" style=""width: 400px; height: 400px; margin-bottom: 30px;"">
      <div style=""display: flex; justify-content: center; gap: 40px;"">
      <div style=""
        text-align: center;
        font-size: 24px;
        opacity: 1;
        border: 2px solid #000;
        border-radius: 8px;
        padding: 20px 15px;
        width: 60px;
        box-shadow: 0 0 10px #333;
      "">
        F<br>
      </div>
      <div style=""
        text-align: center;
        font-size: 24px;
        opacity: 0.3;
        border: 2px solid #999;
        border-radius: 8px;
        padding: 20px 15px;
        width: 60px;
        box-shadow: none;
      "">
        G<br>
      </div>
      <div style=""
        text-align: center;
        font-size: 24px;
        opacity: 0.3;
        border: 2px solid #999;
        border-radius: 8px;
        padding: 20px 15px;
        width: 60px;
        box-shadow: none;
      "">
        H<br>
      </div>
      <div style=""
        text-align: center;
        font-size: 24px;
        opacity: 0.3;
        border: 2px solid #999;
        border-radius: 8px;
        padding: 20px 15px;
        width: 60px;
        box-shadow: none;
      "">
        J<br>
      </div></div></div>","f","3","4","fc","10","A1","{""A3"":""g"",""A4"":""h"",""A2"":""j"",""A1"":""f""}","{""A1"":0.8,""A2"":0.4,""A3"":0.5,""A4"":0.1}","Condition 1","1","","",""
"","","","","","html-keyboard-response","52","2.1.0","162473","null","
    <div style=""text-align: center;"">
      <img src=""static/images/feedback_1.jpg"" style=""width: 400px; height: 400px; margin-bottom: 30px;"">
      <div style=""display: flex; justify-content: center; gap: 40px;"">
      <div style=""
        text-align: center;
        font-size: 24px;
        opacity: 1;
        border: 2px solid #000;
        border-radius: 8px;
        padding: 20px 15px;
        width: 60px;
        box-shadow: 0 0 10px #333;
      "">
        F<br>
      </div>
      <div style=""
        text-align: center;
        font-size: 24px;
        opacity: 0.3;
        border: 2px solid #999;
        border-radius: 8px;
        padding: 20px 15px;
        width: 60px;
        box-shadow: none;
      "">
        G<br>
      </div>
      <div style=""
        text-align: center;
        font-size: 24px;
        opacity: 0.3;
        border: 2px solid #999;
        border-radius: 8px;
        padding: 20px 15px;
        width: 60px;
        box-shadow: none;
      "">
        H<br>
      </div>
      <div style=""
        text-align: center;
        font-size: 24px;
        opacity: 0.3;
        border: 2px solid #999;
        border-radius: 8px;
        padding: 20px 15px;
        width: 60px;
        box-shadow: none;
      "">
        J<br>
      </div></div></div>","null","","","","","","","","","","","",""
"","","","","","html-keyboard-response","53","2.1.0","162976","null","
    <div style=""text-align: center;"">
      <img src=""static/images/fix_cross.jpg"" style=""width: 400px; height: 400px; margin-bottom: 30px;"">
      <div style=""display: flex; justify-content: center; gap: 40px;"">
      <div style=""
        text-align: center;
        font-size: 24px;
        opacity: 0.3;
        border: 2px solid #999;
        border-radius: 8px;
        padding: 20px 15px;
        width: 60px;
        box-shadow: none;
      "">
        F<br>
      </div>
      <div style=""
        text-align: center;
        font-size: 24px;
        opacity: 1;
        border: 2px solid #000;
        border-radius: 8px;
        padding: 20px 15px;
        width: 60px;
        box-shadow: 0 0 10px #333;
      "">
        G<br>
      </div>
      <div style=""
        text-align: center;
        font-size: 24px;
        opacity: 0.3;
        border: 2px solid #999;
        border-radius: 8px;
        padding: 20px 15px;
        width: 60px;
        box-shadow: none;
      "">
        H<br>
      </div>
      <div style=""
        text-align: center;
        font-size: 24px;
        opacity: 0.3;
        border: 2px solid #999;
        border-radius: 8px;
        padding: 20px 15px;
        width: 60px;
        box-shadow: none;
      "">
        J<br>
      </div></div></div>","null","","","","","","","","","","","",""
"","","","","","html-keyboard-response","54","2.1.0","163614","636","
    <div style=""text-align: center;"">
      <img src=""static/images/10.jpg"" style=""width: 400px; height: 400px; margin-bottom: 30px;"">
      <div style=""display: flex; justify-content: center; gap: 40px;"">
      <div style=""
        text-align: center;
        font-size: 24px;
        opacity: 0.3;
        border: 2px solid #999;
        border-radius: 8px;
        padding: 20px 15px;
        width: 60px;
        box-shadow: none;
      "">
        F<br>
      </div>
      <div style=""
        text-align: center;
        font-size: 24px;
        opacity: 1;
        border: 2px solid #000;
        border-radius: 8px;
        padding: 20px 15px;
        width: 60px;
        box-shadow: 0 0 10px #333;
      "">
        G<br>
      </div>
      <div style=""
        text-align: center;
        font-size: 24px;
        opacity: 0.3;
        border: 2px solid #999;
        border-radius: 8px;
        padding: 20px 15px;
        width: 60px;
        box-shadow: none;
      "">
        H<br>
      </div>
      <div style=""
        text-align: center;
        font-size: 24px;
        opacity: 0.3;
        border: 2px solid #999;
        border-radius: 8px;
        padding: 20px 15px;
        width: 60px;
        box-shadow: none;
      "">
        J<br>
      </div></div></div>","g","3","0","fc","10","A3","{""A3"":""g"",""A4"":""h"",""A2"":""j"",""A1"":""f""}","{""A1"":0.8,""A2"":0.4,""A3"":0.5,""A4"":0.1}","Condition 1","1","","",""
"","","","","","html-keyboard-response","55","2.1.0","164617","null","
    <div style=""text-align: center;"">
      <img src=""static/images/feedback_1.jpg"" style=""width: 400px; height: 400px; margin-bottom: 30px;"">
      <div style=""display: flex; justify-content: center; gap: 40px;"">
      <div style=""
        text-align: center;
        font-size: 24px;
        opacity: 0.3;
        border: 2px solid #999;
        border-radius: 8px;
        padding: 20px 15px;
        width: 60px;
        box-shadow: none;
      "">
        F<br>
      </div>
      <div style=""
        text-align: center;
        font-size: 24px;
        opacity: 1;
        border: 2px solid #000;
        border-radius: 8px;
        padding: 20px 15px;
        width: 60px;
        box-shadow: 0 0 10px #333;
      "">
        G<br>
      </div>
      <div style=""
        text-align: center;
        font-size: 24px;
        opacity: 0.3;
        border: 2px solid #999;
        border-radius: 8px;
        padding: 20px 15px;
        width: 60px;
        box-shadow: none;
      "">
        H<br>
      </div>
      <div style=""
        text-align: center;
        font-size: 24px;
        opacity: 0.3;
        border: 2px solid #999;
        border-radius: 8px;
        padding: 20px 15px;
        width: 60px;
        box-shadow: none;
      "">
        J<br>
      </div></div></div>","null","","","","","","","","","","","",""
"","","","","","html-keyboard-response","56","2.1.0","165121","null","
    <div style=""text-align: center;"">
      <img src=""static/images/fix_cross.jpg"" style=""width: 400px; height: 400px; margin-bottom: 30px;"">
      <div style=""display: flex; justify-content: center; gap: 40px;"">
      <div style=""
        text-align: center;
        font-size: 24px;
        opacity: 0.3;
        border: 2px solid #999;
        border-radius: 8px;
        padding: 20px 15px;
        width: 60px;
        box-shadow: none;
      "">
        F<br>
      </div>
      <div style=""
        text-align: center;
        font-size: 24px;
        opacity: 1;
        border: 2px solid #000;
        border-radius: 8px;
        padding: 20px 15px;
        width: 60px;
        box-shadow: 0 0 10px #333;
      "">
        G<br>
      </div>
      <div style=""
        text-align: center;
        font-size: 24px;
        opacity: 0.3;
        border: 2px solid #999;
        border-radius: 8px;
        padding: 20px 15px;
        width: 60px;
        box-shadow: none;
      "">
        H<br>
      </div>
      <div style=""
        text-align: center;
        font-size: 24px;
        opacity: 0.3;
        border: 2px solid #999;
        border-radius: 8px;
        padding: 20px 15px;
        width: 60px;
        box-shadow: none;
      "">
        J<br>
      </div></div></div>","null","","","","","","","","","","","",""
"","","","","","html-keyboard-response","57","2.1.0","165408","285","
    <div style=""text-align: center;"">
      <img src=""static/images/10.jpg"" style=""width: 400px; height: 400px; margin-bottom: 30px;"">
      <div style=""display: flex; justify-content: center; gap: 40px;"">
      <div style=""
        text-align: center;
        font-size: 24px;
        opacity: 0.3;
        border: 2px solid #999;
        border-radius: 8px;
        padding: 20px 15px;
        width: 60px;
        box-shadow: none;
      "">
        F<br>
      </div>
      <div style=""
        text-align: center;
        font-size: 24px;
        opacity: 1;
        border: 2px solid #000;
        border-radius: 8px;
        padding: 20px 15px;
        width: 60px;
        box-shadow: 0 0 10px #333;
      "">
        G<br>
      </div>
      <div style=""
        text-align: center;
        font-size: 24px;
        opacity: 0.3;
        border: 2px solid #999;
        border-radius: 8px;
        padding: 20px 15px;
        width: 60px;
        box-shadow: none;
      "">
        H<br>
      </div>
      <div style=""
        text-align: center;
        font-size: 24px;
        opacity: 0.3;
        border: 2px solid #999;
        border-radius: 8px;
        padding: 20px 15px;
        width: 60px;
        box-shadow: none;
      "">
        J<br>
      </div></div></div>","g","3","1","fc","10","A3","{""A3"":""g"",""A4"":""h"",""A2"":""j"",""A1"":""f""}","{""A1"":0.8,""A2"":0.4,""A3"":0.5,""A4"":0.1}","Condition 1","0","","",""
"","","","","","html-keyboard-response","58","2.1.0","166411","null","
    <div style=""text-align: center;"">
      <img src=""static/images/feedback_0.jpg"" style=""width: 400px; height: 400px; margin-bottom: 30px;"">
      <div style=""display: flex; justify-content: center; gap: 40px;"">
      <div style=""
        text-align: center;
        font-size: 24px;
        opacity: 0.3;
        border: 2px solid #999;
        border-radius: 8px;
        padding: 20px 15px;
        width: 60px;
        box-shadow: none;
      "">
        F<br>
      </div>
      <div style=""
        text-align: center;
        font-size: 24px;
        opacity: 1;
        border: 2px solid #000;
        border-radius: 8px;
        padding: 20px 15px;
        width: 60px;
        box-shadow: 0 0 10px #333;
      "">
        G<br>
      </div>
      <div style=""
        text-align: center;
        font-size: 24px;
        opacity: 0.3;
        border: 2px solid #999;
        border-radius: 8px;
        padding: 20px 15px;
        width: 60px;
        box-shadow: none;
      "">
        H<br>
      </div>
      <div style=""
        text-align: center;
        font-size: 24px;
        opacity: 0.3;
        border: 2px solid #999;
        border-radius: 8px;
        padding: 20px 15px;
        width: 60px;
        box-shadow: none;
      "">
        J<br>
      </div></div></div>","null","","","","","","","","","","","",""
"","","","","","html-keyboard-response","59","2.1.0","166914","null","
    <div style=""text-align: center;"">
      <img src=""static/images/fix_cross.jpg"" style=""width: 400px; height: 400px; margin-bottom: 30px;"">
      <div style=""display: flex; justify-content: center; gap: 40px;"">
      <div style=""
        text-align: center;
        font-size: 24px;
        opacity: 0.3;
        border: 2px solid #999;
        border-radius: 8px;
        padding: 20px 15px;
        width: 60px;
        box-shadow: none;
      "">
        F<br>
      </div>
      <div style=""
        text-align: center;
        font-size: 24px;
        opacity: 1;
        border: 2px solid #000;
        border-radius: 8px;
        padding: 20px 15px;
        width: 60px;
        box-shadow: 0 0 10px #333;
      "">
        G<br>
      </div>
      <div style=""
        text-align: center;
        font-size: 24px;
        opacity: 0.3;
        border: 2px solid #999;
        border-radius: 8px;
        padding: 20px 15px;
        width: 60px;
        box-shadow: none;
      "">
        H<br>
      </div>
      <div style=""
        text-align: center;
        font-size: 24px;
        opacity: 0.3;
        border: 2px solid #999;
        border-radius: 8px;
        padding: 20px 15px;
        width: 60px;
        box-shadow: none;
      "">
        J<br>
      </div></div></div>","null","","","","","","","","","","","",""
"","","","","","html-keyboard-response","60","2.1.0","167319","404","
    <div style=""text-align: center;"">
      <img src=""static/images/10.jpg"" style=""width: 400px; height: 400px; margin-bottom: 30px;"">
      <div style=""display: flex; justify-content: center; gap: 40px;"">
      <div style=""
        text-align: center;
        font-size: 24px;
        opacity: 0.3;
        border: 2px solid #999;
        border-radius: 8px;
        padding: 20px 15px;
        width: 60px;
        box-shadow: none;
      "">
        F<br>
      </div>
      <div style=""
        text-align: center;
        font-size: 24px;
        opacity: 1;
        border: 2px solid #000;
        border-radius: 8px;
        padding: 20px 15px;
        width: 60px;
        box-shadow: 0 0 10px #333;
      "">
        G<br>
      </div>
      <div style=""
        text-align: center;
        font-size: 24px;
        opacity: 0.3;
        border: 2px solid #999;
        border-radius: 8px;
        padding: 20px 15px;
        width: 60px;
        box-shadow: none;
      "">
        H<br>
      </div>
      <div style=""
        text-align: center;
        font-size: 24px;
        opacity: 0.3;
        border: 2px solid #999;
        border-radius: 8px;
        padding: 20px 15px;
        width: 60px;
        box-shadow: none;
      "">
        J<br>
      </div></div></div>","g","3","2","fc","10","A3","{""A3"":""g"",""A4"":""h"",""A2"":""j"",""A1"":""f""}","{""A1"":0.8,""A2"":0.4,""A3"":0.5,""A4"":0.1}","Condition 1","1","","",""
"","","","","","html-keyboard-response","61","2.1.0","168323","null","
    <div style=""text-align: center;"">
      <img src=""static/images/feedback_1.jpg"" style=""width: 400px; height: 400px; margin-bottom: 30px;"">
      <div style=""display: flex; justify-content: center; gap: 40px;"">
      <div style=""
        text-align: center;
        font-size: 24px;
        opacity: 0.3;
        border: 2px solid #999;
        border-radius: 8px;
        padding: 20px 15px;
        width: 60px;
        box-shadow: none;
      "">
        F<br>
      </div>
      <div style=""
        text-align: center;
        font-size: 24px;
        opacity: 1;
        border: 2px solid #000;
        border-radius: 8px;
        padding: 20px 15px;
        width: 60px;
        box-shadow: 0 0 10px #333;
      "">
        G<br>
      </div>
      <div style=""
        text-align: center;
        font-size: 24px;
        opacity: 0.3;
        border: 2px solid #999;
        border-radius: 8px;
        padding: 20px 15px;
        width: 60px;
        box-shadow: none;
      "">
        H<br>
      </div>
      <div style=""
        text-align: center;
        font-size: 24px;
        opacity: 0.3;
        border: 2px solid #999;
        border-radius: 8px;
        padding: 20px 15px;
        width: 60px;
        box-shadow: none;
      "">
        J<br>
      </div></div></div>","null","","","","","","","","","","","",""
"","","","","","html-keyboard-response","62","2.1.0","168826","null","
    <div style=""text-align: center;"">
      <img src=""static/images/fix_cross.jpg"" style=""width: 400px; height: 400px; margin-bottom: 30px;"">
      <div style=""display: flex; justify-content: center; gap: 40px;"">
      <div style=""
        text-align: center;
        font-size: 24px;
        opacity: 0.3;
        border: 2px solid #999;
        border-radius: 8px;
        padding: 20px 15px;
        width: 60px;
        box-shadow: none;
      "">
        F<br>
      </div>
      <div style=""
        text-align: center;
        font-size: 24px;
        opacity: 1;
        border: 2px solid #000;
        border-radius: 8px;
        padding: 20px 15px;
        width: 60px;
        box-shadow: 0 0 10px #333;
      "">
        G<br>
      </div>
      <div style=""
        text-align: center;
        font-size: 24px;
        opacity: 0.3;
        border: 2px solid #999;
        border-radius: 8px;
        padding: 20px 15px;
        width: 60px;
        box-shadow: none;
      "">
        H<br>
      </div>
      <div style=""
        text-align: center;
        font-size: 24px;
        opacity: 0.3;
        border: 2px solid #999;
        border-radius: 8px;
        padding: 20px 15px;
        width: 60px;
        box-shadow: none;
      "">
        J<br>
      </div></div></div>","null","","","","","","","","","","","",""
"","","","","","html-keyboard-response","63","2.1.0","169271","444","
    <div style=""text-align: center;"">
      <img src=""static/images/10.jpg"" style=""width: 400px; height: 400px; margin-bottom: 30px;"">
      <div style=""display: flex; justify-content: center; gap: 40px;"">
      <div style=""
        text-align: center;
        font-size: 24px;
        opacity: 0.3;
        border: 2px solid #999;
        border-radius: 8px;
        padding: 20px 15px;
        width: 60px;
        box-shadow: none;
      "">
        F<br>
      </div>
      <div style=""
        text-align: center;
        font-size: 24px;
        opacity: 1;
        border: 2px solid #000;
        border-radius: 8px;
        padding: 20px 15px;
        width: 60px;
        box-shadow: 0 0 10px #333;
      "">
        G<br>
      </div>
      <div style=""
        text-align: center;
        font-size: 24px;
        opacity: 0.3;
        border: 2px solid #999;
        border-radius: 8px;
        padding: 20px 15px;
        width: 60px;
        box-shadow: none;
      "">
        H<br>
      </div>
      <div style=""
        text-align: center;
        font-size: 24px;
        opacity: 0.3;
        border: 2px solid #999;
        border-radius: 8px;
        padding: 20px 15px;
        width: 60px;
        box-shadow: none;
      "">
        J<br>
      </div></div></div>","g","3","3","fc","10","A3","{""A3"":""g"",""A4"":""h"",""A2"":""j"",""A1"":""f""}","{""A1"":0.8,""A2"":0.4,""A3"":0.5,""A4"":0.1}","Condition 1","0","","",""
"","","","","","html-keyboard-response","64","2.1.0","170274","null","
    <div style=""text-align: center;"">
      <img src=""static/images/feedback_0.jpg"" style=""width: 400px; height: 400px; margin-bottom: 30px;"">
      <div style=""display: flex; justify-content: center; gap: 40px;"">
      <div style=""
        text-align: center;
        font-size: 24px;
        opacity: 0.3;
        border: 2px solid #999;
        border-radius: 8px;
        padding: 20px 15px;
        width: 60px;
        box-shadow: none;
      "">
        F<br>
      </div>
      <div style=""
        text-align: center;
        font-size: 24px;
        opacity: 1;
        border: 2px solid #000;
        border-radius: 8px;
        padding: 20px 15px;
        width: 60px;
        box-shadow: 0 0 10px #333;
      "">
        G<br>
      </div>
      <div style=""
        text-align: center;
        font-size: 24px;
        opacity: 0.3;
        border: 2px solid #999;
        border-radius: 8px;
        padding: 20px 15px;
        width: 60px;
        box-shadow: none;
      "">
        H<br>
      </div>
      <div style=""
        text-align: center;
        font-size: 24px;
        opacity: 0.3;
        border: 2px solid #999;
        border-radius: 8px;
        padding: 20px 15px;
        width: 60px;
        box-shadow: none;
      "">
        J<br>
      </div></div></div>","null","","","","","","","","","","","",""
"","","","","","html-keyboard-response","65","2.1.0","170778","null","
    <div style=""text-align: center;"">
      <img src=""static/images/fix_cross.jpg"" style=""width: 400px; height: 400px; margin-bottom: 30px;"">
      <div style=""display: flex; justify-content: center; gap: 40px;"">
      <div style=""
        text-align: center;
        font-size: 24px;
        opacity: 0.3;
        border: 2px solid #999;
        border-radius: 8px;
        padding: 20px 15px;
        width: 60px;
        box-shadow: none;
      "">
        F<br>
      </div>
      <div style=""
        text-align: center;
        font-size: 24px;
        opacity: 1;
        border: 2px solid #000;
        border-radius: 8px;
        padding: 20px 15px;
        width: 60px;
        box-shadow: 0 0 10px #333;
      "">
        G<br>
      </div>
      <div style=""
        text-align: center;
        font-size: 24px;
        opacity: 0.3;
        border: 2px solid #999;
        border-radius: 8px;
        padding: 20px 15px;
        width: 60px;
        box-shadow: none;
      "">
        H<br>
      </div>
      <div style=""
        text-align: center;
        font-size: 24px;
        opacity: 0.3;
        border: 2px solid #999;
        border-radius: 8px;
        padding: 20px 15px;
        width: 60px;
        box-shadow: none;
      "">
        J<br>
      </div></div></div>","null","","","","","","","","","","","",""
"","","","","","html-keyboard-response","66","2.1.0","171304","523","
    <div style=""text-align: center;"">
      <img src=""static/images/10.jpg"" style=""width: 400px; height: 400px; margin-bottom: 30px;"">
      <div style=""display: flex; justify-content: center; gap: 40px;"">
      <div style=""
        text-align: center;
        font-size: 24px;
        opacity: 0.3;
        border: 2px solid #999;
        border-radius: 8px;
        padding: 20px 15px;
        width: 60px;
        box-shadow: none;
      "">
        F<br>
      </div>
      <div style=""
        text-align: center;
        font-size: 24px;
        opacity: 1;
        border: 2px solid #000;
        border-radius: 8px;
        padding: 20px 15px;
        width: 60px;
        box-shadow: 0 0 10px #333;
      "">
        G<br>
      </div>
      <div style=""
        text-align: center;
        font-size: 24px;
        opacity: 0.3;
        border: 2px solid #999;
        border-radius: 8px;
        padding: 20px 15px;
        width: 60px;
        box-shadow: none;
      "">
        H<br>
      </div>
      <div style=""
        text-align: center;
        font-size: 24px;
        opacity: 0.3;
        border: 2px solid #999;
        border-radius: 8px;
        padding: 20px 15px;
        width: 60px;
        box-shadow: none;
      "">
        J<br>
      </div></div></div>","g","3","4","fc","10","A3","{""A3"":""g"",""A4"":""h"",""A2"":""j"",""A1"":""f""}","{""A1"":0.8,""A2"":0.4,""A3"":0.5,""A4"":0.1}","Condition 1","1","","",""
"","","","","","html-keyboard-response","67","2.1.0","172308","null","
    <div style=""text-align: center;"">
      <img src=""static/images/feedback_1.jpg"" style=""width: 400px; height: 400px; margin-bottom: 30px;"">
      <div style=""display: flex; justify-content: center; gap: 40px;"">
      <div style=""
        text-align: center;
        font-size: 24px;
        opacity: 0.3;
        border: 2px solid #999;
        border-radius: 8px;
        padding: 20px 15px;
        width: 60px;
        box-shadow: none;
      "">
        F<br>
      </div>
      <div style=""
        text-align: center;
        font-size: 24px;
        opacity: 1;
        border: 2px solid #000;
        border-radius: 8px;
        padding: 20px 15px;
        width: 60px;
        box-shadow: 0 0 10px #333;
      "">
        G<br>
      </div>
      <div style=""
        text-align: center;
        font-size: 24px;
        opacity: 0.3;
        border: 2px solid #999;
        border-radius: 8px;
        padding: 20px 15px;
        width: 60px;
        box-shadow: none;
      "">
        H<br>
      </div>
      <div style=""
        text-align: center;
        font-size: 24px;
        opacity: 0.3;
        border: 2px solid #999;
        border-radius: 8px;
        padding: 20px 15px;
        width: 60px;
        box-shadow: none;
      "">
        J<br>
      </div></div></div>","null","","","","","","","","","","","",""
"","","","","","html-keyboard-response","68","2.1.0","175986","3676","
    <div style=""text-align: center;"">
      <h3>Image 1</h3>
      The following actions will be available:<br/><br/>
      <div style=""display: flex; justify-content: center; gap: 40px;"">
      <div style=""
        text-align: center;
        font-size: 24px;
        opacity: 0.3;
        border: 2px solid #999;
        border-radius: 8px;
        padding: 20px 15px;
        width: 60px;
        box-shadow: none;
      "">
        F<br>
      </div>
      <div style=""
        text-align: center;
        font-size: 24px;
        opacity: 1;
        border: 2px solid #000;
        border-radius: 8px;
        padding: 20px 15px;
        width: 60px;
        box-shadow: 0 0 10px #333;
      "">
        G<br>
      </div>
      <div style=""
        text-align: center;
        font-size: 24px;
        opacity: 1;
        border: 2px solid #000;
        border-radius: 8px;
        padding: 20px 15px;
        width: 60px;
        box-shadow: 0 0 10px #333;
      "">
        H<br>
      </div>
      <div style=""
        text-align: center;
        font-size: 24px;
        opacity: 0.3;
        border: 2px solid #999;
        border-radius: 8px;
        padding: 20px 15px;
        width: 60px;
        box-shadow: none;
      "">
        J<br>
      </div></div></div></p></div><p class=""continue"">[Press SPACE to continue]</p>"," ","","","","","","","","","","","",""
"","","","","","html-keyboard-response","69","2.1.0","176489","null","
    <div style=""text-align: center;"">
      <img src=""static/images/fix_cross.jpg"" style=""width: 400px; height: 400px; margin-bottom: 30px;"">
      <div style=""display: flex; justify-content: center; gap: 40px;"">
      <div style=""
        text-align: center;
        font-size: 24px;
        opacity: 0.3;
        border: 2px solid #999;
        border-radius: 8px;
        padding: 20px 15px;
        width: 60px;
        box-shadow: none;
      "">
        F<br>
      </div>
      <div style=""
        text-align: center;
        font-size: 24px;
        opacity: 1;
        border: 2px solid #000;
        border-radius: 8px;
        padding: 20px 15px;
        width: 60px;
        box-shadow: 0 0 10px #333;
      "">
        G<br>
      </div>
      <div style=""
        text-align: center;
        font-size: 24px;
        opacity: 1;
        border: 2px solid #000;
        border-radius: 8px;
        padding: 20px 15px;
        width: 60px;
        box-shadow: 0 0 10px #333;
      "">
        H<br>
      </div>
      <div style=""
        text-align: center;
        font-size: 24px;
        opacity: 0.3;
        border: 2px solid #999;
        border-radius: 8px;
        padding: 20px 15px;
        width: 60px;
        box-shadow: none;
      "">
        J<br>
      </div></div></div>","null","","","","","","","","","","","",""
"","","","","","html-keyboard-response","70","2.1.0","177014","523","
    <div style=""text-align: center;"">
      <img src=""static/images/10.jpg"" style=""width: 400px; height: 400px; margin-bottom: 30px;"">
      <div style=""display: flex; justify-content: center; gap: 40px;"">
      <div style=""
        text-align: center;
        font-size: 24px;
        opacity: 0.3;
        border: 2px solid #999;
        border-radius: 8px;
        padding: 20px 15px;
        width: 60px;
        box-shadow: none;
      "">
        F<br>
      </div>
      <div style=""
        text-align: center;
        font-size: 24px;
        opacity: 1;
        border: 2px solid #000;
        border-radius: 8px;
        padding: 20px 15px;
        width: 60px;
        box-shadow: 0 0 10px #333;
      "">
        G<br>
      </div>
      <div style=""
        text-align: center;
        font-size: 24px;
        opacity: 1;
        border: 2px solid #000;
        border-radius: 8px;
        padding: 20px 15px;
        width: 60px;
        box-shadow: 0 0 10px #333;
      "">
        H<br>
      </div>
      <div style=""
        text-align: center;
        font-size: 24px;
        opacity: 0.3;
        border: 2px solid #999;
        border-radius: 8px;
        padding: 20px 15px;
        width: 60px;
        box-shadow: none;
      "">
        J<br>
      </div></div></div>","g","3","","training","10","A3","{""A3"":""g"",""A4"":""h"",""A2"":""j"",""A1"":""f""}","{""A1"":0.8,""A2"":0.4,""A3"":0.5,""A4"":0.1}","Condition 1","0","0","[""A3"",""A4""]","[""g"",""h""]"
"","","","","","html-keyboard-response","71","2.1.0","178017","null","
    <div style=""text-align: center;"">
      <img src=""static/images/feedback_0.jpg"" style=""width: 400px; height: 400px; margin-bottom: 30px;"">
      <div style=""display: flex; justify-content: center; gap: 40px;"">
      <div style=""
        text-align: center;
        font-size: 24px;
        opacity: 0.3;
        border: 2px solid #999;
        border-radius: 8px;
        padding: 20px 15px;
        width: 60px;
        box-shadow: none;
      "">
        F<br>
      </div>
      <div style=""
        text-align: center;
        font-size: 24px;
        opacity: 1;
        border: 2px solid #000;
        border-radius: 8px;
        padding: 20px 15px;
        width: 60px;
        box-shadow: 0 0 10px #333;
      "">
        G<br>
      </div>
      <div style=""
        text-align: center;
        font-size: 24px;
        opacity: 1;
        border: 2px solid #000;
        border-radius: 8px;
        padding: 20px 15px;
        width: 60px;
        box-shadow: 0 0 10px #333;
      "">
        H<br>
      </div>
      <div style=""
        text-align: center;
        font-size: 24px;
        opacity: 0.3;
        border: 2px solid #999;
        border-radius: 8px;
        padding: 20px 15px;
        width: 60px;
        box-shadow: none;
      "">
        J<br>
      </div></div></div>","null","","","","","","","","","","","",""
"","","","","","html-keyboard-response","72","2.1.0","178522","null","
    <div style=""text-align: center;"">
      <img src=""static/images/fix_cross.jpg"" style=""width: 400px; height: 400px; margin-bottom: 30px;"">
      <div style=""display: flex; justify-content: center; gap: 40px;"">
      <div style=""
        text-align: center;
        font-size: 24px;
        opacity: 0.3;
        border: 2px solid #999;
        border-radius: 8px;
        padding: 20px 15px;
        width: 60px;
        box-shadow: none;
      "">
        F<br>
      </div>
      <div style=""
        text-align: center;
        font-size: 24px;
        opacity: 1;
        border: 2px solid #000;
        border-radius: 8px;
        padding: 20px 15px;
        width: 60px;
        box-shadow: 0 0 10px #333;
      "">
        G<br>
      </div>
      <div style=""
        text-align: center;
        font-size: 24px;
        opacity: 1;
        border: 2px solid #000;
        border-radius: 8px;
        padding: 20px 15px;
        width: 60px;
        box-shadow: 0 0 10px #333;
      "">
        H<br>
      </div>
      <div style=""
        text-align: center;
        font-size: 24px;
        opacity: 0.3;
        border: 2px solid #999;
        border-radius: 8px;
        padding: 20px 15px;
        width: 60px;
        box-shadow: none;
      "">
        J<br>
      </div></div></div>","null","","","","","","","","","","","",""
"","","","","","html-keyboard-response","73","2.1.0","178863","340","
    <div style=""text-align: center;"">
      <img src=""static/images/10.jpg"" style=""width: 400px; height: 400px; margin-bottom: 30px;"">
      <div style=""display: flex; justify-content: center; gap: 40px;"">
      <div style=""
        text-align: center;
        font-size: 24px;
        opacity: 0.3;
        border: 2px solid #999;
        border-radius: 8px;
        padding: 20px 15px;
        width: 60px;
        box-shadow: none;
      "">
        F<br>
      </div>
      <div style=""
        text-align: center;
        font-size: 24px;
        opacity: 1;
        border: 2px solid #000;
        border-radius: 8px;
        padding: 20px 15px;
        width: 60px;
        box-shadow: 0 0 10px #333;
      "">
        G<br>
      </div>
      <div style=""
        text-align: center;
        font-size: 24px;
        opacity: 1;
        border: 2px solid #000;
        border-radius: 8px;
        padding: 20px 15px;
        width: 60px;
